"sample_f - RawData"
"Wavelength nm.","T%"
200.00,-0.105
200.50,0.043
201.00,0.177
201.50,-0.002
202.00,0.112
202.50,0.205
203.00,-0.008
203.50,0.124
204.00,-0.040
204.50,-0.034
205.00,0.140
205.50,-0.057
206.00,0.032
206.50,0.002
207.00,0.010
207.50,0.055
208.00,0.036
208.50,0.047
209.00,0.100
209.50,0.055
210.00,0.042
210.50,0.063
211.00,0.027
211.50,0.007
212.00,0.053
212.50,-0.017
213.00,0.041
213.50,0.079
214.00,0.001
214.50,-0.003
215.00,0.015
215.50,-0.006
216.00,0.050
216.50,0.009
217.00,0.016
217.50,0.004
218.00,-0.010
218.50,0.003
219.00,0.029
219.50,0.033
220.00,0.031
220.50,0.007
221.00,0.002
221.50,-0.017
222.00,0.021
222.50,0.005
223.00,0.015
223.50,0.008
224.00,-0.008
224.50,-0.014
225.00,0.023
225.50,0.009
226.00,0.008
226.50,0.017
227.00,0.002
227.50,-0.006
228.00,0.014
228.50,-0.008
229.00,0.012
229.50,0.009
230.00,-0.001
230.50,0.007
231.00,0.003
231.50,-0.006
232.00,-0.005
232.50,0.008
233.00,-0.008
233.50,-0.000
234.00,0.002
234.50,-0.004
235.00,0.002
235.50,0.012
236.00,-0.008
236.50,0.019
237.00,0.007
237.50,0.001
238.00,-0.006
238.50,0.008
239.00,0.002
239.50,-0.001
240.00,-0.001
240.50,0.003
241.00,0.002
241.50,-0.005
242.00,0.016
242.50,-0.007
243.00,-0.009
243.50,0.002
244.00,0.002
244.50,0.008
245.00,0.007
245.50,0.004
246.00,0.007
246.50,-0.001
247.00,-0.007
247.50,0.000
248.00,0.002
248.50,0.001
249.00,-0.001
249.50,-0.003
250.00,-0.007
250.50,-0.002
251.00,-0.004
251.50,-0.000
252.00,-0.001
252.50,0.002
253.00,-0.002
253.50,-0.003
254.00,0.004
254.50,0.001
255.00,0.011
255.50,0.003
256.00,-0.005
256.50,-0.001
257.00,0.005
257.50,0.003
258.00,0.011
258.50,0.001
259.00,0.008
259.50,-0.004
260.00,0.008
260.50,0.009
261.00,0.005
261.50,0.006
262.00,-0.006
262.50,0.005
263.00,0.008
263.50,0.003
264.00,0.005
264.50,0.006
265.00,0.014
265.50,0.024
266.00,0.025
266.50,0.027
267.00,0.041
267.50,0.047
268.00,0.063
268.50,0.068
269.00,0.087
269.50,0.133
270.00,0.154
270.50,0.205
271.00,0.241
271.50,0.285
272.00,0.325
272.50,0.373
273.00,0.442
273.50,0.536
274.00,0.613
274.50,0.715
275.00,0.827
275.50,0.908
276.00,1.050
276.50,1.203
277.00,1.331
277.50,1.517
278.00,1.667
278.50,1.839
279.00,2.016
279.50,2.230
280.00,2.450
280.50,2.718
281.00,2.921
281.50,3.130
282.00,3.505
282.50,3.729
283.00,4.020
283.50,4.378
284.00,4.710
284.50,5.095
285.00,5.448
285.50,5.770
286.00,6.260
286.50,6.639
287.00,6.991
287.50,7.515
288.00,8.033
288.50,8.429
289.00,8.901
289.50,9.381
290.00,9.903
290.50,10.427
291.00,10.935
291.50,11.599
292.00,12.204
292.50,12.689
293.00,13.386
293.50,13.992
294.00,14.699
294.50,15.342
295.00,16.166
295.50,16.729
296.00,17.367
296.50,18.362
297.00,18.970
297.50,19.843
298.00,20.596
298.50,21.303
299.00,22.075
299.50,22.825
300.00,23.847
300.50,24.336
301.00,25.360
301.50,26.384
302.00,26.867
302.50,28.037
303.00,28.739
303.50,29.709
304.00,30.495
304.50,31.443
305.00,32.125
305.50,32.889
306.00,34.033
306.50,34.852
307.00,35.760
307.50,36.565
308.00,37.564
308.50,38.517
309.00,39.432
309.50,40.204
310.00,41.143
310.50,42.082
311.00,42.991
311.50,43.667
312.00,44.483
312.50,45.534
313.00,46.656
313.50,47.349
314.00,48.354
314.50,49.074
315.00,50.036
315.50,50.515
316.00,51.347
316.50,51.819
317.00,53.051
317.50,53.715
318.00,54.316
318.50,55.441
319.00,56.366
319.50,56.586
320.00,57.554
320.50,57.897
321.00,58.460
321.50,59.204
322.00,59.943
322.50,60.981
323.00,61.505
323.50,62.509
324.00,62.756
324.50,63.643
325.00,64.026
325.50,64.486
326.00,65.412
326.50,65.726
327.00,66.288
327.50,66.618
328.00,67.240
328.50,67.933
329.00,68.588
329.50,69.215
330.00,68.928
330.50,70.092
331.00,69.961
331.50,70.244
332.00,71.070
332.50,71.899
333.00,71.361
333.50,72.275
334.00,72.403
334.50,73.171
335.00,73.930
335.50,73.246
336.00,73.909
336.50,74.365
337.00,74.375
337.50,74.700
338.00,75.268
338.50,75.546
339.00,75.726
339.50,75.617
340.00,75.989
340.50,79.194
341.00,76.425
341.50,77.901
342.00,76.413
342.50,76.950
343.00,78.155
343.50,80.164
344.00,77.964
344.50,79.679
345.00,78.953
345.50,79.885
346.00,79.224
346.50,80.411
347.00,79.033
347.50,79.922
348.00,80.775
348.50,80.997
349.00,81.440
349.50,80.538
350.00,81.498
350.50,80.615
351.00,81.995
351.50,82.962
352.00,82.710
352.50,82.228
353.00,82.831
353.50,83.099
354.00,83.676
354.50,82.937
355.00,83.368
355.50,84.803
356.00,83.843
356.50,84.327
357.00,83.980
357.50,84.374
358.00,84.515
358.50,84.964
359.00,84.042
359.50,84.615
360.00,84.547
360.50,84.813
361.00,84.257
361.50,85.070
362.00,85.080
362.50,84.673
363.00,85.625
363.50,85.463
364.00,85.290
364.50,85.039
365.00,85.617
365.50,85.317
366.00,85.736
366.50,86.224
367.00,85.404
367.50,85.762
368.00,85.936
368.50,85.776
369.00,85.865
369.50,86.084
370.00,86.137
370.50,86.007
371.00,85.997
371.50,86.130
372.00,86.747
372.50,85.999
373.00,85.880
373.50,86.222
374.00,86.261
374.50,86.068
375.00,86.365
375.50,86.347
376.00,86.527
376.50,85.951
377.00,86.584
377.50,86.569
378.00,86.328
378.50,86.286
379.00,86.253
379.50,86.264
380.00,86.833
380.50,86.396
381.00,86.082
381.50,85.790
382.00,85.998
382.50,86.325
383.00,86.334
383.50,85.963
384.00,86.071
384.50,86.224
385.00,86.324
385.50,86.016
386.00,85.795
386.50,85.756
387.00,85.820
387.50,85.518
388.00,85.540
388.50,85.336
389.00,85.357
389.50,84.993
390.00,85.146
390.50,85.094
391.00,84.742
391.50,84.719
392.00,84.414
392.50,84.791
393.00,84.255
393.50,84.286
394.00,84.160
394.50,84.106
395.00,83.723
395.50,83.664
396.00,83.445
396.50,83.293
397.00,82.997
397.50,83.046
398.00,83.206
398.50,82.832
399.00,82.839
399.50,82.589
400.00,82.538
400.50,82.695
401.00,82.284
401.50,82.157
402.00,82.181
402.50,82.146
403.00,81.874
403.50,81.963
404.00,82.026
404.50,81.794
405.00,81.696
405.50,81.378
406.00,81.515
406.50,81.385
407.00,81.286
407.50,81.137
408.00,81.136
408.50,80.984
409.00,81.061
409.50,80.978
410.00,80.722
410.50,80.733
411.00,80.877
411.50,80.591
412.00,80.781
412.50,80.420
413.00,80.361
413.50,80.166
414.00,80.214
414.50,79.906
415.00,79.980
415.50,79.843
416.00,79.709
416.50,79.448
417.00,79.540
417.50,79.251
418.00,79.120
418.50,79.201
419.00,79.127
419.50,78.888
420.00,78.857
420.50,78.838
421.00,78.782
421.50,78.662
422.00,78.671
422.50,78.787
423.00,78.542
423.50,78.468
424.00,78.478
424.50,78.256
425.00,78.124
425.50,78.452
426.00,78.467
426.50,78.350
427.00,78.517
427.50,78.431
428.00,78.676
428.50,78.710
429.00,78.286
429.50,78.537
430.00,78.543
430.50,78.355
431.00,78.390
431.50,78.340
432.00,78.573
432.50,78.486
433.00,78.395
433.50,78.515
434.00,78.455
434.50,78.426
435.00,78.435
435.50,78.523
436.00,78.457
436.50,78.568
437.00,78.382
437.50,78.497
438.00,78.460
438.50,78.902
439.00,78.529
439.50,78.665
440.00,78.522
440.50,78.526
441.00,78.612
441.50,78.544
442.00,78.742
442.50,78.572
443.00,78.537
443.50,78.771
444.00,78.558
444.50,78.418
445.00,78.580
445.50,78.659
446.00,78.681
446.50,78.676
447.00,78.541
447.50,78.809
448.00,78.698
448.50,78.341
449.00,78.488
449.50,78.522
450.00,78.402
450.50,78.584
451.00,78.613
451.50,78.370
452.00,78.179
452.50,78.510
453.00,78.205
453.50,78.265
454.00,78.227
454.50,78.294
455.00,78.189
455.50,77.968
456.00,78.103
456.50,78.168
457.00,77.994
457.50,77.916
458.00,78.001
458.50,78.249
459.00,77.995
459.50,78.094
460.00,78.080
460.50,78.131
461.00,78.252
461.50,78.258
462.00,78.139
462.50,78.515
463.00,78.376
463.50,78.355
464.00,78.419
464.50,78.607
465.00,78.682
465.50,78.610
466.00,78.713
466.50,78.790
467.00,79.007
467.50,78.910
468.00,79.190
468.50,78.955
469.00,79.260
469.50,79.027
470.00,79.126
470.50,79.187
471.00,79.360
471.50,79.333
472.00,79.432
472.50,79.363
473.00,79.478
473.50,79.478
474.00,79.589
474.50,79.613
475.00,79.573
475.50,79.698
476.00,79.759
476.50,79.681
477.00,79.793
477.50,79.876
478.00,79.877
478.50,79.956
479.00,79.928
479.50,80.145
480.00,80.132
480.50,80.131
481.00,80.034
481.50,80.133
482.00,80.278
482.50,80.495
483.00,80.251
483.50,80.308
484.00,80.523
484.50,80.500
485.00,80.469
485.50,80.554
486.00,80.755
486.50,80.660
487.00,80.786
487.50,80.801
488.00,80.823
488.50,81.025
489.00,80.856
489.50,80.866
490.00,80.941
490.50,81.051
491.00,81.084
491.50,81.226
492.00,81.155
492.50,81.158
493.00,81.246
493.50,81.332
494.00,81.332
494.50,81.223
495.00,81.180
495.50,81.305
496.00,81.239
496.50,81.219
497.00,81.264
497.50,81.308
498.00,81.318
498.50,81.211
499.00,81.303
499.50,81.311
500.00,81.412
500.50,81.230
501.00,81.344
501.50,81.406
502.00,81.419
502.50,81.650
503.00,81.416
503.50,81.532
504.00,81.642
504.50,81.612
505.00,81.734
505.50,81.467
506.00,81.555
506.50,81.661
507.00,81.627
507.50,81.647
508.00,81.581
508.50,81.556
509.00,81.540
509.50,81.535
510.00,81.650
510.50,81.200
511.00,81.377
511.50,81.390
512.00,81.255
512.50,81.283
513.00,81.385
513.50,81.375
514.00,81.352
514.50,81.333
515.00,81.147
515.50,81.140
516.00,81.363
516.50,81.275
517.00,81.125
517.50,81.002
518.00,81.102
518.50,81.212
519.00,81.296
519.50,81.203
520.00,81.263
520.50,80.979
521.00,81.166
521.50,81.064
522.00,81.042
522.50,81.021
523.00,81.115
523.50,81.002
524.00,81.110
524.50,81.143
525.00,81.110
525.50,81.213
526.00,80.986
526.50,81.025
527.00,81.084
527.50,81.193
528.00,81.304
528.50,81.142
529.00,81.088
529.50,81.154
530.00,81.085
530.50,81.058
531.00,81.100
531.50,81.102
532.00,81.148
532.50,81.057
533.00,81.074
533.50,81.206
534.00,81.244
534.50,81.096
535.00,81.166
535.50,81.302
536.00,81.386
536.50,81.495
537.00,81.347
537.50,81.544
538.00,81.555
538.50,81.549
539.00,81.712
539.50,81.903
540.00,81.925
540.50,81.936
541.00,81.916
541.50,82.164
542.00,82.080
542.50,82.243
543.00,82.241
543.50,82.421
544.00,82.187
544.50,82.404
545.00,82.606
545.50,82.473
546.00,82.553
546.50,82.688
547.00,82.732
547.50,82.798
548.00,83.013
548.50,83.021
549.00,82.833
549.50,83.083
550.00,83.036
550.50,83.020
551.00,83.161
551.50,82.931
552.00,83.190
552.50,83.074
553.00,83.025
553.50,83.087
554.00,83.012
554.50,83.090
555.00,83.140
555.50,83.226
556.00,83.080
556.50,83.121
557.00,83.047
557.50,83.345
558.00,83.116
558.50,83.303
559.00,83.217
559.50,83.275
560.00,83.054
560.50,83.062
561.00,83.327
561.50,83.243
562.00,83.172
562.50,83.058
563.00,83.067
563.50,83.148
564.00,82.987
564.50,82.971
565.00,82.991
565.50,82.974
566.00,82.927
566.50,83.022
567.00,82.768
567.50,83.029
568.00,82.754
568.50,82.851
569.00,82.768
569.50,82.789
570.00,82.635
570.50,82.621
571.00,82.699
571.50,82.846
572.00,82.590
572.50,82.517
573.00,82.563
573.50,82.482
574.00,82.546
574.50,82.341
575.00,82.375
575.50,82.232
576.00,82.298
576.50,82.242
577.00,82.172
577.50,82.107
578.00,82.252
578.50,82.112
579.00,82.058
579.50,81.848
580.00,81.998
580.50,81.845
581.00,81.801
581.50,81.784
582.00,81.570
582.50,81.553
583.00,81.562
583.50,81.526
584.00,81.436
584.50,81.276
585.00,81.332
585.50,81.339
586.00,81.179
586.50,81.166
587.00,81.037
587.50,81.006
588.00,80.965
588.50,80.853
589.00,80.751
589.50,80.696
590.00,80.619
590.50,80.498
591.00,80.527
591.50,80.348
592.00,80.214
592.50,80.303
593.00,80.189
593.50,80.062
594.00,80.040
594.50,79.950
595.00,79.805
595.50,79.661
596.00,79.656
596.50,79.492
597.00,79.425
597.50,79.321
598.00,79.200
598.50,79.170
599.00,78.970
599.50,78.950
600.00,78.861
600.50,78.814
601.00,78.677
601.50,78.534
602.00,78.466
602.50,78.350
603.00,78.221
603.50,78.037
604.00,77.993
604.50,77.962
605.00,77.880
605.50,77.663
606.00,77.520
606.50,77.315
607.00,77.413
607.50,77.127
608.00,77.079
608.50,76.945
609.00,76.900
609.50,76.808
610.00,76.551
610.50,76.515
611.00,76.350
611.50,76.154
612.00,76.130
612.50,75.891
613.00,75.856
613.50,75.822
614.00,75.558
614.50,75.394
615.00,75.119
615.50,75.098
616.00,74.906
616.50,74.827
617.00,74.619
617.50,74.655
618.00,74.343
618.50,74.291
619.00,74.183
619.50,73.915
620.00,73.758
620.50,73.721
621.00,73.473
621.50,73.300
622.00,73.172
622.50,73.045
623.00,72.888
623.50,72.660
624.00,72.480
624.50,72.350
625.00,72.244
625.50,72.137
626.00,71.926
626.50,71.724
627.00,71.730
627.50,71.504
628.00,71.326
628.50,71.210
629.00,70.926
629.50,70.606
630.00,70.603
630.50,70.366
631.00,70.238
631.50,70.077
632.00,69.907
632.50,69.839
633.00,69.531
633.50,69.552
634.00,69.145
634.50,69.093
635.00,68.860
635.50,68.684
636.00,68.571
636.50,68.280
637.00,68.159
637.50,68.045
638.00,67.950
638.50,67.702
639.00,67.599
639.50,67.452
640.00,67.117
640.50,67.062
641.00,66.750
641.50,66.670
642.00,66.479
642.50,66.360
643.00,66.301
643.50,65.977
644.00,65.705
644.50,65.509
645.00,65.408
645.50,65.289
646.00,65.065
646.50,64.954
647.00,64.710
647.50,64.449
648.00,64.288
648.50,64.158
649.00,63.821
649.50,63.639
650.00,63.409
650.50,63.266
651.00,63.021
651.50,62.894
652.00,62.648
652.50,62.457
653.00,62.269
653.50,62.088
654.00,61.921
654.50,61.788
655.00,61.478
655.50,61.376
656.00,61.110
656.50,60.924
657.00,60.709
657.50,60.593
658.00,60.286
658.50,59.989
659.00,59.996
659.50,59.728
660.00,59.548
660.50,59.245
661.00,59.127
661.50,58.883
662.00,58.595
662.50,58.466
663.00,58.306
663.50,58.077
664.00,57.937
664.50,57.685
665.00,57.477
665.50,57.251
666.00,57.103
666.50,57.021
667.00,56.773
667.50,56.587
668.00,56.420
668.50,56.210
669.00,56.047
669.50,55.755
670.00,55.585
670.50,55.471
671.00,55.363
671.50,55.042
672.00,54.952
672.50,54.755
673.00,54.536
673.50,54.327
674.00,54.130
674.50,53.925
675.00,53.664
675.50,53.491
676.00,53.300
676.50,53.045
677.00,52.895
677.50,52.574
678.00,52.448
678.50,52.255
679.00,52.018
679.50,51.480
680.00,51.311
680.50,51.278
681.00,50.790
681.50,50.652
682.00,50.479
682.50,50.156
683.00,49.906
683.50,49.801
684.00,49.505
684.50,49.170
685.00,48.967
685.50,48.698
686.00,48.451
686.50,48.257
687.00,48.069
687.50,47.573
688.00,47.673
688.50,47.297
689.00,47.110
689.50,46.761
690.00,46.536
690.50,46.346
691.00,45.967
691.50,45.977
692.00,45.650
692.50,45.389
693.00,45.231
693.50,45.006
694.00,44.682
694.50,44.358
695.00,44.271
695.50,44.093
696.00,43.767
696.50,43.573
697.00,43.338
697.50,43.003
698.00,42.779
698.50,42.560
699.00,42.360
699.50,42.125
700.00,41.852
700.50,41.552
701.00,41.309
701.50,41.209
702.00,40.995
702.50,40.869
703.00,40.374
703.50,40.317
704.00,39.969
704.50,39.789
705.00,39.428
705.50,39.378
706.00,39.253
706.50,38.860
707.00,38.623
707.50,38.457
708.00,38.010
708.50,37.891
709.00,37.801
709.50,37.501
710.00,37.191
710.50,36.964
711.00,36.765
711.50,36.503
712.00,36.310
712.50,36.137
713.00,35.906
713.50,35.639
714.00,35.381
714.50,35.126
715.00,34.881
715.50,34.730
716.00,34.491
716.50,34.331
717.00,34.099
717.50,33.771
718.00,33.663
718.50,33.316
719.00,33.141
719.50,32.994
720.00,32.832
720.50,32.571
721.00,32.314
721.50,32.066
722.00,31.902
722.50,31.684
723.00,31.445
723.50,31.219
724.00,30.949
724.50,30.825
725.00,30.739
725.50,30.378
726.00,30.201
726.50,29.926
727.00,29.761
727.50,29.547
728.00,29.262
728.50,29.123
729.00,28.850
729.50,28.746
730.00,28.561
730.50,28.324
731.00,28.050
731.50,28.032
732.00,27.629
732.50,27.491
733.00,27.314
733.50,26.979
734.00,26.919
734.50,26.697
735.00,26.488
735.50,26.219
736.00,26.146
736.50,25.838
737.00,25.819
737.50,25.575
738.00,25.252
738.50,25.097
739.00,24.905
739.50,24.732
740.00,24.456
740.50,24.331
741.00,24.118
741.50,23.995
742.00,23.773
742.50,23.588
743.00,23.418
743.50,23.072
744.00,23.077
744.50,22.759
745.00,22.652
745.50,22.525
746.00,22.284
746.50,21.950
747.00,21.848
747.50,21.620
748.00,21.517
748.50,21.326
749.00,21.123
749.50,20.929
750.00,20.715
750.50,20.584
751.00,20.455
751.50,20.185
752.00,20.111
752.50,19.921
753.00,19.669
753.50,19.515
754.00,19.311
754.50,19.116
755.00,18.896
755.50,18.758
756.00,18.653
756.50,18.509
757.00,18.291
757.50,18.191
758.00,17.916
758.50,17.901
759.00,17.614
759.50,17.477
760.00,17.203
760.50,17.141
761.00,16.981
761.50,16.784
762.00,16.714
762.50,16.453
763.00,16.326
763.50,16.216
764.00,16.059
764.50,15.886
765.00,15.713
765.50,15.484
766.00,15.444
766.50,15.302
767.00,15.064
767.50,15.067
768.00,14.841
768.50,14.635
769.00,14.575
769.50,14.397
770.00,14.172
770.50,14.171
771.00,13.956
771.50,13.792
772.00,13.609
772.50,13.549
773.00,13.384
773.50,13.300
774.00,13.138
774.50,12.940
775.00,12.847
775.50,12.644
776.00,12.546
776.50,12.411
777.00,12.310
777.50,12.112
778.00,12.094
778.50,11.899
779.00,11.747
779.50,11.656
780.00,11.557
780.50,11.460
781.00,11.304
781.50,11.117
782.00,11.106
782.50,10.903
783.00,10.780
783.50,10.732
784.00,10.616
784.50,10.445
785.00,10.325
785.50,10.250
786.00,10.104
786.50,10.004
787.00,9.895
787.50,9.799
788.00,9.653
788.50,9.549
789.00,9.446
789.50,9.290
790.00,9.204
790.50,9.171
791.00,8.976
791.50,8.852
792.00,8.836
792.50,8.661
793.00,8.642
793.50,8.559
794.00,8.427
794.50,8.281
795.00,8.167
795.50,8.105
796.00,7.999
796.50,7.923
797.00,7.790
797.50,7.728
798.00,7.707
798.50,7.561
799.00,7.428
799.50,7.380
800.00,7.277
800.50,7.255
801.00,7.097
801.50,7.033
802.00,6.938
802.50,6.935
803.00,6.730
803.50,6.684
804.00,6.628
804.50,6.570
805.00,6.462
805.50,6.400
806.00,6.291
806.50,6.189
807.00,6.173
807.50,6.072
808.00,6.038
808.50,5.895
809.00,5.849
809.50,5.697
810.00,5.689
810.50,5.680
811.00,5.590
811.50,5.501
812.00,5.395
812.50,5.340
813.00,5.295
813.50,5.224
814.00,5.129
814.50,5.158
815.00,5.000
815.50,4.970
816.00,4.949
816.50,4.796
817.00,4.762
817.50,4.668
818.00,4.597
818.50,4.602
819.00,4.548
819.50,4.529
820.00,4.461
820.50,4.367
821.00,4.224
821.50,4.283
822.00,4.207
822.50,4.138
823.00,4.147
823.50,3.952
824.00,3.976
824.50,3.966
825.00,3.885
825.50,3.811
826.00,3.806
826.50,3.716
827.00,3.666
827.50,3.618
828.00,3.608
828.50,3.497
829.00,3.465
829.50,3.431
830.00,3.420
830.50,3.341
831.00,3.231
831.50,3.273
832.00,3.271
832.50,3.199
833.00,3.204
833.50,3.053
834.00,3.059
834.50,2.971
835.00,2.947
835.50,2.923
836.00,2.891
836.50,2.833
837.00,2.804
837.50,2.746
838.00,2.737
838.50,2.673
839.00,2.635
839.50,2.603
840.00,2.627
840.50,2.616
841.00,2.550
841.50,2.574
842.00,2.467
842.50,2.377
843.00,2.323
843.50,2.297
844.00,2.293
844.50,2.306
845.00,2.221
845.50,2.192
846.00,2.194
846.50,2.167
847.00,2.112
847.50,2.130
848.00,2.062
848.50,1.994
849.00,1.989
849.50,1.958
850.00,1.963
850.50,1.940
851.00,1.910
851.50,1.859
852.00,1.876
852.50,1.833
853.00,1.770
853.50,1.762
854.00,1.751
854.50,1.718
855.00,1.710
855.50,1.714
856.00,1.645
856.50,1.625
857.00,1.621
857.50,1.582
858.00,1.624
858.50,1.531
859.00,1.523
859.50,1.452
860.00,1.427
860.50,1.450
861.00,1.446
861.50,1.422
862.00,1.446
862.50,1.413
863.00,1.356
863.50,1.327
864.00,1.332
864.50,1.279
865.00,1.297
865.50,1.240
866.00,1.248
866.50,1.235
867.00,1.206
867.50,1.202
868.00,1.130
868.50,1.125
869.00,1.144
869.50,1.150
870.00,1.118
870.50,1.099
871.00,1.080
871.50,1.071
872.00,1.109
872.50,1.073
873.00,1.056
873.50,0.967
874.00,0.969
874.50,1.034
875.00,1.019
875.50,0.899
876.00,0.977
876.50,0.976
877.00,0.909
877.50,0.902
878.00,0.859
878.50,0.830
879.00,0.849
879.50,0.859
880.00,0.873
880.50,0.852
881.00,0.866
881.50,0.902
882.00,0.895
882.50,0.732
883.00,0.754
883.50,0.702
884.00,0.854
884.50,0.846
885.00,0.801
885.50,0.768
886.00,0.798
886.50,0.529
887.00,0.725
887.50,0.675
888.00,0.662
888.50,0.802
889.00,0.873
889.50,0.744
890.00,0.646
890.50,0.499
891.00,0.944
891.50,0.870
892.00,0.505
892.50,0.469
893.00,0.451
893.50,0.626
894.00,0.387
894.50,0.793
895.00,0.519
895.50,0.522
896.00,0.332
896.50,0.386
897.00,0.955
897.50,0.702
898.00,0.942
898.50,0.634
899.00,0.711
899.50,0.590
900.00,0.053
900.50,0.360
901.00,0.501
901.50,0.547
902.00,0.359
902.50,0.503
903.00,0.374
903.50,0.387
904.00,0.340
904.50,0.361
905.00,0.441
905.50,0.303
906.00,0.396
906.50,0.342
907.00,0.339
907.50,0.337
908.00,0.380
908.50,0.354
909.00,0.378
909.50,0.391
910.00,0.278
910.50,0.309
911.00,0.348
911.50,0.367
912.00,0.276
912.50,0.274
913.00,0.329
913.50,0.346
914.00,0.328
914.50,0.296
915.00,0.313
915.50,0.329
916.00,0.248
916.50,0.275
917.00,0.329
917.50,0.303
918.00,0.309
918.50,0.295
919.00,0.272
919.50,0.271
920.00,0.174
920.50,0.300
921.00,0.267
921.50,0.253
922.00,0.255
922.50,0.223
923.00,0.256
923.50,0.263
924.00,0.215
924.50,0.249
925.00,0.228
925.50,0.179
926.00,0.187
926.50,0.195
927.00,0.242
927.50,0.212
928.00,0.176
928.50,0.251
929.00,0.210
929.50,0.162
930.00,0.227
930.50,0.188
931.00,0.216
931.50,0.183
932.00,0.157
932.50,0.226
933.00,0.172
933.50,0.149
934.00,0.190
934.50,0.155
935.00,0.163
935.50,0.157
936.00,0.184
936.50,0.149
937.00,0.145
937.50,0.174
938.00,0.146
938.50,0.161
939.00,0.178
939.50,0.104
940.00,0.193
940.50,0.146
941.00,0.099
941.50,0.136
942.00,0.095
942.50,0.132
943.00,0.128
943.50,0.181
944.00,0.144
944.50,0.133
945.00,0.145
945.50,0.127
946.00,0.191
946.50,0.110
947.00,0.153
947.50,0.075
948.00,0.140
948.50,0.109
949.00,0.120
949.50,0.142
950.00,0.127
950.50,0.107
951.00,0.089
951.50,0.116
952.00,0.145
952.50,0.115
953.00,0.117
953.50,0.100
954.00,0.066
954.50,0.127
955.00,0.096
955.50,0.113
956.00,0.079
956.50,0.101
957.00,0.096
957.50,0.128
958.00,0.084
958.50,0.107
959.00,0.073
959.50,0.066
960.00,0.089
960.50,0.061
961.00,0.091
961.50,0.069
962.00,0.068
962.50,0.073
963.00,0.086
963.50,0.079
964.00,0.093
964.50,0.088
965.00,0.103
965.50,0.054
966.00,0.072
966.50,0.096
967.00,0.084
967.50,0.091
968.00,0.083
968.50,0.049
969.00,0.082
969.50,0.064
970.00,0.092
970.50,0.067
971.00,0.022
971.50,0.092
972.00,0.055
972.50,0.072
973.00,0.041
973.50,0.047
974.00,0.061
974.50,0.067
975.00,0.063
975.50,0.034
976.00,0.069
976.50,0.053
977.00,0.087
977.50,0.078
978.00,0.057
978.50,0.045
979.00,0.042
979.50,0.064
980.00,0.050
980.50,0.038
981.00,0.045
981.50,0.074
982.00,0.030
982.50,0.058
983.00,0.034
983.50,0.051
984.00,0.052
984.50,0.037
985.00,0.020
985.50,0.056
986.00,0.018
986.50,0.057
987.00,0.038
987.50,0.056
988.00,0.048
988.50,0.046
989.00,0.054
989.50,0.032
990.00,0.067
990.50,0.061
991.00,0.045
991.50,0.034
992.00,0.037
992.50,0.054
993.00,0.037
993.50,0.036
994.00,0.046
994.50,0.035
995.00,0.041
995.50,0.025
996.00,0.061
996.50,0.047
997.00,0.042
997.50,0.012
998.00,0.058
998.50,0.030
999.00,0.023
999.50,0.024
1000.00,0.041
1000.50,0.012
1001.00,0.054
1001.50,0.042
1002.00,0.044
1002.50,0.049
1003.00,0.026
1003.50,0.036
1004.00,0.043
1004.50,0.034
1005.00,0.020
1005.50,0.036
1006.00,0.032
1006.50,0.028
1007.00,0.035
1007.50,0.036
1008.00,0.023
1008.50,0.041
1009.00,0.020
1009.50,0.039
1010.00,0.043
1010.50,0.018
1011.00,0.019
1011.50,0.024
1012.00,0.034
1012.50,0.023
1013.00,0.030
1013.50,0.016
1014.00,0.019
1014.50,0.025
1015.00,0.019
1015.50,0.030
1016.00,0.030
1016.50,0.030
1017.00,0.025
1017.50,0.019
1018.00,0.016
1018.50,0.043
1019.00,0.024
1019.50,0.044
1020.00,0.026
1020.50,0.014
1021.00,0.055
1021.50,0.022
1022.00,0.017
1022.50,0.016
1023.00,0.020
1023.50,0.012
1024.00,0.023
1024.50,0.016
1025.00,0.026
1025.50,0.007
1026.00,0.034
1026.50,0.020
1027.00,0.031
1027.50,0.015
1028.00,0.023
1028.50,0.039
1029.00,0.013
1029.50,0.029
1030.00,0.012
1030.50,0.018
1031.00,0.008
1031.50,-0.004
1032.00,0.032
1032.50,0.027
1033.00,0.013
1033.50,0.015
1034.00,0.007
1034.50,0.017
1035.00,0.022
1035.50,0.018
1036.00,0.032
1036.50,0.007
1037.00,0.028
1037.50,0.008
1038.00,0.018
1038.50,0.024
1039.00,0.003
1039.50,0.009
1040.00,0.008
1040.50,0.013
1041.00,0.028
1041.50,0.033
1042.00,0.014
1042.50,0.014
1043.00,0.016
1043.50,0.023
1044.00,0.032
1044.50,0.023
1045.00,0.028
1045.50,0.023
1046.00,0.021
1046.50,0.010
1047.00,0.010
1047.50,0.024
1048.00,0.014
1048.50,0.034
1049.00,0.011
1049.50,0.033
1050.00,0.006
1050.50,0.008
1051.00,0.013
1051.50,0.010
1052.00,0.009
1052.50,0.034
1053.00,0.014
1053.50,0.014
1054.00,0.010
1054.50,0.006
1055.00,0.012
1055.50,0.016
1056.00,0.005
1056.50,-0.009
1057.00,0.011
1057.50,0.023
1058.00,0.018
1058.50,0.014
1059.00,0.016
1059.50,0.017
1060.00,0.019
1060.50,0.007
1061.00,0.012
1061.50,0.011
1062.00,0.006
1062.50,0.015
1063.00,0.019
1063.50,0.025
1064.00,-0.001
1064.50,0.023
1065.00,0.010
1065.50,0.011
1066.00,0.005
1066.50,0.010
1067.00,0.004
1067.50,0.029
1068.00,0.011
1068.50,-0.000
1069.00,0.009
1069.50,0.004
1070.00,0.011
1070.50,0.010
1071.00,0.011
1071.50,0.023
1072.00,0.007
1072.50,0.007
1073.00,0.017
1073.50,0.003
1074.00,0.019
1074.50,0.009
1075.00,0.006
1075.50,0.008
1076.00,0.007
1076.50,0.013
1077.00,0.004
1077.50,0.011
1078.00,0.009
1078.50,0.007
1079.00,0.007
1079.50,-0.000
1080.00,0.013
1080.50,0.001
1081.00,0.002
1081.50,0.008
1082.00,0.004
1082.50,0.008
1083.00,0.003
1083.50,0.008
1084.00,0.010
1084.50,0.015
1085.00,0.003
1085.50,0.004
1086.00,0.010
1086.50,0.012
1087.00,0.002
1087.50,0.015
1088.00,0.012
1088.50,0.013
1089.00,0.004
1089.50,0.015
1090.00,0.011
1090.50,-0.006
1091.00,0.012
1091.50,0.006
1092.00,-0.003
1092.50,0.009
1093.00,0.001
1093.50,0.009
1094.00,0.003
1094.50,0.019
1095.00,0.002
1095.50,0.001
1096.00,0.011
1096.50,0.012
1097.00,-0.004
1097.50,0.018
1098.00,0.010
1098.50,0.024
1099.00,0.007
1099.50,0.012
1100.00,0.022
1100.50,0.006
1101.00,0.006
1101.50,0.002
1102.00,-0.004
1102.50,0.010
1103.00,-0.003
1103.50,0.010
1104.00,0.002
1104.50,0.003
1105.00,0.006
1105.50,0.002
1106.00,0.011
1106.50,0.021
1107.00,0.002
1107.50,0.008
1108.00,0.024
1108.50,0.007
1109.00,0.005
1109.50,-0.008
1110.00,0.020
1110.50,0.012
1111.00,0.008
1111.50,0.006
1112.00,0.006
1112.50,0.000
1113.00,0.004
1113.50,0.015
1114.00,0.017
1114.50,0.014
1115.00,0.011
1115.50,0.006
1116.00,0.006
1116.50,0.023
1117.00,0.011
1117.50,0.012
1118.00,0.015
1118.50,0.009
1119.00,0.022
1119.50,0.006
1120.00,0.001
1120.50,0.006
1121.00,0.019
1121.50,0.011
1122.00,0.007
1122.50,-0.009
1123.00,0.009
1123.50,0.001
1124.00,0.005
1124.50,0.008
1125.00,0.009
1125.50,0.018
1126.00,0.008
1126.50,-0.001
1127.00,0.020
1127.50,0.015
1128.00,0.009
1128.50,0.006
1129.00,-0.000
1129.50,0.010
1130.00,-0.004
1130.50,0.007
1131.00,0.008
1131.50,0.012
1132.00,0.010
1132.50,-0.004
1133.00,0.005
1133.50,0.003
1134.00,0.007
1134.50,0.013
1135.00,0.011
1135.50,0.004
1136.00,0.010
1136.50,0.003
1137.00,0.011
1137.50,-0.006
1138.00,0.003
1138.50,0.010
1139.00,0.008
1139.50,0.024
1140.00,0.001
1140.50,-0.007
1141.00,0.020
1141.50,-0.002
1142.00,0.002
1142.50,0.003
1143.00,0.010
1143.50,0.007
1144.00,0.009
1144.50,0.009
1145.00,0.006
1145.50,-0.009
1146.00,0.014
1146.50,0.006
1147.00,-0.002
1147.50,0.003
1148.00,0.010
1148.50,-0.006
1149.00,0.011
1149.50,0.003
1150.00,0.013
1150.50,0.008
1151.00,0.010
1151.50,0.013
1152.00,-0.005
1152.50,0.004
1153.00,0.005
1153.50,0.009
1154.00,0.006
1154.50,0.010
1155.00,0.001
1155.50,0.000
1156.00,0.007
1156.50,0.000
1157.00,0.013
1157.50,0.006
1158.00,0.002
1158.50,0.015
1159.00,0.004
1159.50,0.009
1160.00,0.000
1160.50,0.019
1161.00,0.005
1161.50,0.003
1162.00,0.001
1162.50,0.002
1163.00,0.008
1163.50,0.004
1164.00,0.010
1164.50,0.009
1165.00,0.010
1165.50,0.004
1166.00,0.004
1166.50,0.012
1167.00,-0.001
1167.50,0.011
1168.00,0.005
1168.50,-0.000
1169.00,0.013
1169.50,0.007
1170.00,0.010
1170.50,0.013
1171.00,0.009
1171.50,0.008
1172.00,-0.000
1172.50,0.004
1173.00,-0.005
1173.50,-0.002
1174.00,0.005
1174.50,0.004
1175.00,-0.003
1175.50,0.001
1176.00,0.009
1176.50,0.009
1177.00,0.003
1177.50,0.002
1178.00,0.013
1178.50,0.007
1179.00,0.001
1179.50,-0.004
1180.00,0.009
1180.50,0.006
1181.00,0.005
1181.50,0.010
1182.00,0.004
1182.50,-0.006
1183.00,0.012
1183.50,0.008
1184.00,-0.000
1184.50,0.006
1185.00,0.002
1185.50,0.005
1186.00,0.013
1186.50,0.015
1187.00,0.005
1187.50,0.010
1188.00,0.013
1188.50,0.009
1189.00,0.018
1189.50,0.007
1190.00,0.001
1190.50,0.007
1191.00,0.003
1191.50,0.004
1192.00,0.002
1192.50,0.004
1193.00,0.004
1193.50,0.000
1194.00,0.004
1194.50,-0.003
1195.00,-0.007
1195.50,0.005
1196.00,0.011
1196.50,0.005
1197.00,0.016
1197.50,0.011
1198.00,0.018
1198.50,0.002
1199.00,0.010
1199.50,0.006
1200.00,0.013
1200.50,0.002
1201.00,0.009
1201.50,0.010
1202.00,0.014
1202.50,-0.003
1203.00,0.002
1203.50,0.011
1204.00,0.004
1204.50,0.012
1205.00,0.006
1205.50,0.003
1206.00,0.016
1206.50,0.001
1207.00,0.003
1207.50,-0.000
1208.00,0.007
1208.50,0.008
1209.00,-0.001
1209.50,0.010
1210.00,0.013
1210.50,0.003
1211.00,0.011
1211.50,0.005
1212.00,0.010
1212.50,0.001
1213.00,0.001
1213.50,0.006
1214.00,0.005
1214.50,0.008
1215.00,0.010
1215.50,0.005
1216.00,0.008
1216.50,0.006
1217.00,0.002
1217.50,0.014
1218.00,-0.000
1218.50,0.001
1219.00,0.005
1219.50,0.008
1220.00,0.003
1220.50,0.001
1221.00,0.007
1221.50,0.009
1222.00,0.015
1222.50,0.011
1223.00,-0.000
1223.50,0.012
1224.00,0.005
1224.50,0.001
1225.00,0.011
1225.50,0.009
1226.00,0.005
1226.50,0.005
1227.00,0.007
1227.50,0.001
1228.00,0.006
1228.50,0.006
1229.00,0.004
1229.50,0.004
1230.00,0.006
1230.50,0.000
1231.00,-0.001
1231.50,0.010
1232.00,0.004
1232.50,0.009
1233.00,0.002
1233.50,0.005
1234.00,0.002
1234.50,0.001
1235.00,-0.010
1235.50,0.008
1236.00,0.004
1236.50,-0.003
1237.00,0.013
1237.50,0.013
1238.00,0.001
1238.50,0.007
1239.00,0.005
1239.50,0.012
1240.00,-0.012
1240.50,0.004
1241.00,-0.002
1241.50,0.007
1242.00,0.018
1242.50,0.006
1243.00,0.005
1243.50,0.016
1244.00,0.004
1244.50,0.013
1245.00,0.001
1245.50,0.002
1246.00,0.005
1246.50,0.005
1247.00,0.009
1247.50,0.010
1248.00,0.004
1248.50,0.006
1249.00,0.006
1249.50,0.005
1250.00,0.007
1250.50,0.004
1251.00,0.004
1251.50,0.011
1252.00,-0.011
1252.50,0.011
1253.00,0.002
1253.50,-0.001
1254.00,-0.003
1254.50,-0.001
1255.00,-0.000
1255.50,0.002
1256.00,0.007
1256.50,0.016
1257.00,-0.006
1257.50,0.015
1258.00,0.005
1258.50,0.004
1259.00,0.012
1259.50,0.005
1260.00,0.003
1260.50,-0.001
1261.00,0.004
1261.50,0.002
1262.00,0.012
1262.50,0.011
1263.00,0.019
1263.50,0.002
1264.00,0.000
1264.50,0.002
1265.00,0.007
1265.50,0.018
1266.00,0.008
1266.50,0.003
1267.00,0.012
1267.50,-0.001
1268.00,0.004
1268.50,0.004
1269.00,0.008
1269.50,0.015
1270.00,0.002
1270.50,0.003
1271.00,0.010
1271.50,0.006
1272.00,0.005
1272.50,0.011
1273.00,-0.003
1273.50,0.019
1274.00,0.003
1274.50,0.012
1275.00,0.007
1275.50,0.003
1276.00,0.015
1276.50,0.007
1277.00,0.001
1277.50,0.009
1278.00,0.008
1278.50,0.005
1279.00,0.004
1279.50,-0.000
1280.00,0.011
1280.50,0.007
1281.00,0.014
1281.50,0.006
1282.00,0.006
1282.50,0.008
1283.00,-0.004
1283.50,0.006
1284.00,0.009
1284.50,0.008
1285.00,0.010
1285.50,0.008
1286.00,0.010
1286.50,0.008
1287.00,0.011
1287.50,0.002
1288.00,0.022
1288.50,0.009
1289.00,0.011
1289.50,0.015
1290.00,0.005
1290.50,0.002
1291.00,0.007
1291.50,0.011
1292.00,0.008
1292.50,0.006
1293.00,0.005
1293.50,0.006
1294.00,0.002
1294.50,0.012
1295.00,0.010
1295.50,0.009
1296.00,0.016
1296.50,0.005
1297.00,0.010
1297.50,0.008
1298.00,0.009
1298.50,0.002
1299.00,-0.002
1299.50,0.007
1300.00,0.004
1300.50,0.006
1301.00,0.015
1301.50,-0.008
1302.00,0.009
1302.50,0.012
1303.00,0.009
1303.50,0.006
1304.00,0.013
1304.50,0.003
1305.00,0.011
1305.50,-0.001
1306.00,0.012
1306.50,-0.003
1307.00,-0.004
1307.50,0.006
1308.00,0.004
1308.50,0.013
1309.00,0.016
1309.50,-0.009
1310.00,0.025
1310.50,0.006
1311.00,-0.001
1311.50,0.012
1312.00,0.003
1312.50,0.018
1313.00,0.005
1313.50,0.009
1314.00,0.009
1314.50,0.018
1315.00,0.011
1315.50,0.011
1316.00,0.011
1316.50,0.013
1317.00,-0.003
1317.50,0.011
1318.00,0.004
1318.50,0.000
1319.00,0.000
1319.50,0.004
1320.00,0.004
1320.50,0.003
1321.00,0.008
1321.50,0.019
1322.00,0.007
1322.50,0.007
1323.00,0.012
1323.50,0.004
1324.00,0.008
1324.50,0.008
1325.00,0.012
1325.50,0.016
1326.00,0.003
1326.50,0.014
1327.00,0.019
1327.50,0.010
1328.00,0.003
1328.50,0.003
1329.00,0.011
1329.50,0.002
1330.00,0.005
1330.50,0.011
1331.00,0.007
1331.50,0.011
1332.00,0.005
1332.50,0.011
1333.00,0.014
1333.50,0.006
1334.00,0.013
1334.50,0.011
1335.00,0.001
1335.50,0.014
1336.00,0.011
1336.50,0.011
1337.00,0.002
1337.50,0.015
1338.00,0.016
1338.50,0.004
1339.00,0.016
1339.50,0.015
1340.00,-0.002
1340.50,0.005
1341.00,0.011
1341.50,-0.005
1342.00,0.017
1342.50,0.018
1343.00,0.021
1343.50,0.014
1344.00,0.009
1344.50,0.007
1345.00,0.004
1345.50,0.012
1346.00,0.008
1346.50,0.010
1347.00,0.012
1347.50,-0.000
1348.00,0.009
1348.50,0.007
1349.00,-0.004
1349.50,0.009
1350.00,0.006
1350.50,0.015
1351.00,0.001
1351.50,0.008
1352.00,0.013
1352.50,0.012
1353.00,0.006
1353.50,0.019
1354.00,0.009
1354.50,0.014
1355.00,0.003
1355.50,0.013
1356.00,0.021
1356.50,0.007
1357.00,0.014
1357.50,0.026
1358.00,0.007
1358.50,0.002
1359.00,0.003
1359.50,0.023
1360.00,0.016
1360.50,0.006
1361.00,0.016
1361.50,0.008
1362.00,0.002
1362.50,0.010
1363.00,0.015
1363.50,0.010
1364.00,0.009
1364.50,0.010
1365.00,0.018
1365.50,0.001
1366.00,0.013
1366.50,0.004
1367.00,0.018
1367.50,0.014
1368.00,0.004
1368.50,0.013
1369.00,0.008
1369.50,0.023
1370.00,0.010
1370.50,0.008
1371.00,0.018
1371.50,0.006
1372.00,0.021
1372.50,0.004
1373.00,0.006
1373.50,0.010
1374.00,0.004
1374.50,0.027
1375.00,0.006
1375.50,0.003
1376.00,0.015
1376.50,0.011
1377.00,0.012
1377.50,0.000
1378.00,0.018
1378.50,0.013
1379.00,0.000
1379.50,0.026
1380.00,0.011
1380.50,0.008
1381.00,0.009
1381.50,0.005
1382.00,0.004
1382.50,0.001
1383.00,0.015
1383.50,0.002
1384.00,0.010
1384.50,0.014
1385.00,0.014
1385.50,0.012
1386.00,0.016
1386.50,0.014
1387.00,0.003
1387.50,0.008
1388.00,0.015
1388.50,0.034
1389.00,0.010
1389.50,0.012
1390.00,0.015
1390.50,0.020
1391.00,0.014
1391.50,0.005
1392.00,0.013
1392.50,0.003
1393.00,0.010
1393.50,0.020
1394.00,0.005
1394.50,0.020
1395.00,0.003
1395.50,0.003
1396.00,0.018
1396.50,0.012
1397.00,0.006
1397.50,0.003
1398.00,0.010
1398.50,0.011
1399.00,0.007
1399.50,0.023
1400.00,0.009
1400.50,0.010
1401.00,0.024
1401.50,0.011
1402.00,0.013
1402.50,0.014
1403.00,0.011
1403.50,0.023
1404.00,0.005
1404.50,0.008
1405.00,0.012
1405.50,0.003
1406.00,0.025
1406.50,0.006
1407.00,0.024
1407.50,0.011
1408.00,0.009
1408.50,0.008
1409.00,0.012
1409.50,0.022
1410.00,0.006
1410.50,0.011
1411.00,0.001
1411.50,0.004
1412.00,0.023
1412.50,0.024
1413.00,0.005
1413.50,0.008
1414.00,0.027
1414.50,0.008
1415.00,0.036
1415.50,0.014
1416.00,0.015
1416.50,0.017
1417.00,0.018
1417.50,0.017
1418.00,0.011
1418.50,0.013
1419.00,0.017
1419.50,0.012
1420.00,0.015
1420.50,0.022
1421.00,0.014
1421.50,0.010
1422.00,0.029
1422.50,0.013
1423.00,0.016
1423.50,0.026
1424.00,0.011
1424.50,0.011
1425.00,0.017
1425.50,0.010
1426.00,0.028
1426.50,0.020
1427.00,0.009
1427.50,0.010
1428.00,0.017
1428.50,0.012
1429.00,0.017
1429.50,0.021
1430.00,0.014
1430.50,0.011
1431.00,0.027
1431.50,0.013
1432.00,0.014
1432.50,0.022
1433.00,0.015
1433.50,0.013
1434.00,0.020
1434.50,0.016
1435.00,0.023
1435.50,0.021
1436.00,0.011
1436.50,0.015
1437.00,0.015
1437.50,0.023
1438.00,0.004
1438.50,0.020
1439.00,0.024
1439.50,0.015
1440.00,0.030
1440.50,0.017
1441.00,0.013
1441.50,0.010
1442.00,0.011
1442.50,0.027
1443.00,0.011
1443.50,0.020
1444.00,0.022
1444.50,0.018
1445.00,0.021
1445.50,0.014
1446.00,0.022
1446.50,0.031
1447.00,0.012
1447.50,0.013
1448.00,0.024
1448.50,0.011
1449.00,0.017
1449.50,0.012
1450.00,0.021
1450.50,0.012
1451.00,0.016
1451.50,0.023
1452.00,0.020
1452.50,0.017
1453.00,0.019
1453.50,0.022
1454.00,0.028
1454.50,0.021
1455.00,0.022
1455.50,0.023
1456.00,0.022
1456.50,0.024
1457.00,0.014
1457.50,0.022
1458.00,0.036
1458.50,0.028
1459.00,0.035
1459.50,0.016
1460.00,0.017
1460.50,0.032
1461.00,0.024
1461.50,0.034
1462.00,0.035
1462.50,0.025
1463.00,0.019
1463.50,0.024
1464.00,0.025
1464.50,0.029
1465.00,0.017
1465.50,0.028
1466.00,0.021
1466.50,0.023
1467.00,0.027
1467.50,0.026
1468.00,0.018
1468.50,0.030
1469.00,0.022
1469.50,0.044
1470.00,0.035
1470.50,0.016
1471.00,0.009
1471.50,0.016
1472.00,0.023
1472.50,0.032
1473.00,0.021
1473.50,0.022
1474.00,0.012
1474.50,0.036
1475.00,0.030
1475.50,0.026
1476.00,0.021
1476.50,0.018
1477.00,0.021
1477.50,0.023
1478.00,0.028
1478.50,0.013
1479.00,0.028
1479.50,0.028
1480.00,0.015
1480.50,0.018
1481.00,0.022
1481.50,0.027
1482.00,0.017
1482.50,0.037
1483.00,0.017
1483.50,0.026
1484.00,0.025
1484.50,0.025
1485.00,0.023
1485.50,0.028
1486.00,0.023
1486.50,0.025
1487.00,0.023
1487.50,0.028
1488.00,0.026
1488.50,0.039
1489.00,0.031
1489.50,0.032
1490.00,0.032
1490.50,0.024
1491.00,0.037
1491.50,0.034
1492.00,0.047
1492.50,0.026
1493.00,0.028
1493.50,0.049
1494.00,0.023
1494.50,0.033
1495.00,0.037
1495.50,0.035
1496.00,0.032
1496.50,0.031
1497.00,0.035
1497.50,0.031
1498.00,0.032
1498.50,0.031
1499.00,0.036
1499.50,0.028
1500.00,0.028
1500.50,0.025
1501.00,0.042
1501.50,0.039
1502.00,0.029
1502.50,0.029
1503.00,0.039
1503.50,0.021
1504.00,0.036
1504.50,0.035
1505.00,0.028
1505.50,0.044
1506.00,0.041
1506.50,0.032
1507.00,0.023
1507.50,0.043
1508.00,0.037
1508.50,0.036
1509.00,0.018
1509.50,0.036
1510.00,0.042
1510.50,0.019
1511.00,0.036
1511.50,0.031
1512.00,0.042
1512.50,0.033
1513.00,0.020
1513.50,0.044
1514.00,0.031
1514.50,0.031
1515.00,0.035
1515.50,0.035
1516.00,0.057
1516.50,0.033
1517.00,0.048
1517.50,0.027
1518.00,0.047
1518.50,0.034
1519.00,0.027
1519.50,0.043
1520.00,0.025
1520.50,0.038
1521.00,0.032
1521.50,0.045
1522.00,0.041
1522.50,0.037
1523.00,0.044
1523.50,0.043
1524.00,0.042
1524.50,0.047
1525.00,0.041
1525.50,0.040
1526.00,0.040
1526.50,0.039
1527.00,0.049
1527.50,0.036
1528.00,0.037
1528.50,0.036
1529.00,0.039
1529.50,0.052
1530.00,0.015
1530.50,0.035
1531.00,0.041
1531.50,0.045
1532.00,0.055
1532.50,0.040
1533.00,0.045
1533.50,0.035
1534.00,0.042
1534.50,0.050
1535.00,0.044
1535.50,0.054
1536.00,0.047
1536.50,0.031
1537.00,0.048
1537.50,0.046
1538.00,0.042
1538.50,0.055
1539.00,0.043
1539.50,0.031
1540.00,0.036
1540.50,0.047
1541.00,0.053
1541.50,0.050
1542.00,0.038
1542.50,0.053
1543.00,0.034
1543.50,0.055
1544.00,0.048
1544.50,0.059
1545.00,0.046
1545.50,0.034
1546.00,0.052
1546.50,0.056
1547.00,0.058
1547.50,0.050
1548.00,0.042
1548.50,0.042
1549.00,0.056
1549.50,0.043
1550.00,0.062
1550.50,0.045
1551.00,0.043
1551.50,0.060
1552.00,0.054
1552.50,0.058
1553.00,0.045
1553.50,0.044
1554.00,0.043
1554.50,0.061
1555.00,0.062
1555.50,0.047
1556.00,0.084
1556.50,0.073
1557.00,0.060
1557.50,0.060
1558.00,0.059
1558.50,0.057
1559.00,0.059
1559.50,0.063
1560.00,0.057
1560.50,0.069
1561.00,0.056
1561.50,0.059
1562.00,0.056
1562.50,0.055
1563.00,0.044
1563.50,0.058
1564.00,0.060
1564.50,0.060
1565.00,0.057
1565.50,0.061
1566.00,0.086
1566.50,0.063
1567.00,0.053
1567.50,0.083
1568.00,0.063
1568.50,0.071
1569.00,0.050
1569.50,0.055
1570.00,0.088
1570.50,0.062
1571.00,0.073
1571.50,0.073
1572.00,0.067
1572.50,0.060
1573.00,0.063
1573.50,0.089
1574.00,0.061
1574.50,0.070
1575.00,0.068
1575.50,0.061
1576.00,0.059
1576.50,0.056
1577.00,0.070
1577.50,0.063
1578.00,0.072
1578.50,0.063
1579.00,0.079
1579.50,0.087
1580.00,0.074
1580.50,0.055
1581.00,0.065
1581.50,0.074
1582.00,0.068
1582.50,0.075
1583.00,0.080
1583.50,0.069
1584.00,0.066
1584.50,0.077
1585.00,0.066
1585.50,0.068
1586.00,0.076
1586.50,0.081
1587.00,0.084
1587.50,0.074
1588.00,0.100
1588.50,0.061
1589.00,0.064
1589.50,0.098
1590.00,0.080
1590.50,0.074
1591.00,0.071
1591.50,0.092
1592.00,0.082
1592.50,0.057
1593.00,0.077
1593.50,0.084
1594.00,0.079
1594.50,0.069
1595.00,0.070
1595.50,0.087
1596.00,0.074
1596.50,0.085
1597.00,0.079
1597.50,0.088
1598.00,0.077
1598.50,0.090
1599.00,0.088
1599.50,0.060
1600.00,0.064
