"sample_d - RawData"
"Wavelength nm.","T%"
200.00,0.049
200.50,0.014
201.00,-0.048
201.50,0.010
202.00,-0.052
202.50,-0.085
203.00,-0.054
203.50,-0.010
204.00,0.072
204.50,-0.031
205.00,0.103
205.50,0.140
206.00,-0.002
206.50,-0.091
207.00,0.027
207.50,0.020
208.00,-0.016
208.50,-0.022
209.00,-0.025
209.50,0.020
210.00,-0.005
210.50,-0.020
211.00,-0.006
211.50,-0.010
212.00,0.040
212.50,0.003
213.00,0.015
213.50,0.015
214.00,-0.024
214.50,0.014
215.00,0.018
215.50,-0.039
216.00,0.010
216.50,-0.027
217.00,0.002
217.50,0.023
218.00,-0.011
218.50,0.002
219.00,0.021
219.50,-0.032
220.00,0.001
220.50,0.029
221.00,0.000
221.50,0.007
222.00,0.008
222.50,-0.006
223.00,0.010
223.50,-0.030
224.00,-0.007
224.50,-0.014
225.00,-0.015
225.50,-0.018
226.00,-0.013
226.50,-0.014
227.00,-0.015
227.50,0.004
228.00,0.007
228.50,0.012
229.00,-0.003
229.50,0.022
230.00,-0.001
230.50,0.006
231.00,0.015
231.50,0.020
232.00,0.006
232.50,-0.007
233.00,0.010
233.50,0.001
234.00,0.008
234.50,0.004
235.00,-0.006
235.50,-0.001
236.00,0.002
236.50,-0.003
237.00,-0.002
237.50,0.010
238.00,0.002
238.50,0.004
239.00,0.010
239.50,0.015
240.00,-0.005
240.50,0.002
241.00,0.009
241.50,0.004
242.00,0.016
242.50,0.011
243.00,-0.005
243.50,-0.002
244.00,0.002
244.50,0.001
245.00,-0.002
245.50,0.003
246.00,-0.000
246.50,-0.001
247.00,0.000
247.50,0.019
248.00,-0.012
248.50,-0.011
249.00,-0.001
249.50,-0.005
250.00,-0.009
250.50,0.006
251.00,-0.004
251.50,0.006
252.00,0.008
252.50,-0.013
253.00,0.003
253.50,0.006
254.00,0.001
254.50,-0.009
255.00,0.006
255.50,-0.000
256.00,0.004
256.50,0.006
257.00,-0.003
257.50,-0.007
258.00,-0.004
258.50,0.001
259.00,0.001
259.50,-0.005
260.00,-0.003
260.50,-0.004
261.00,-0.004
261.50,0.002
262.00,-0.002
262.50,-0.000
263.00,-0.001
263.50,0.003
264.00,0.000
264.50,-0.001
265.00,0.008
265.50,0.002
266.00,0.001
266.50,0.009
267.00,0.001
267.50,-0.007
268.00,-0.003
268.50,-0.000
269.00,0.002
269.50,0.008
270.00,0.008
270.50,-0.002
271.00,-0.007
271.50,0.002
272.00,-0.007
272.50,0.012
273.00,-0.005
273.50,0.000
274.00,-0.009
274.50,0.015
275.00,-0.009
275.50,-0.001
276.00,-0.001
276.50,-0.007
277.00,-0.002
277.50,-0.004
278.00,-0.002
278.50,0.007
279.00,-0.005
279.50,-0.004
280.00,0.004
280.50,0.008
281.00,-0.003
281.50,-0.004
282.00,0.004
282.50,0.006
283.00,-0.005
283.50,-0.006
284.00,-0.004
284.50,-0.005
285.00,0.007
285.50,0.011
286.00,-0.002
286.50,0.005
287.00,0.003
287.50,-0.009
288.00,-0.002
288.50,0.002
289.00,-0.001
289.50,-0.002
290.00,0.010
290.50,-0.003
291.00,-0.002
291.50,-0.000
292.00,0.000
292.50,-0.006
293.00,0.013
293.50,-0.002
294.00,-0.005
294.50,0.005
295.00,0.002
295.50,0.003
296.00,-0.005
296.50,-0.000
297.00,0.002
297.50,0.009
298.00,-0.011
298.50,-0.003
299.00,0.005
299.50,0.009
300.00,-0.003
300.50,0.004
301.00,0.007
301.50,-0.013
302.00,0.015
302.50,-0.006
303.00,-0.006
303.50,0.003
304.00,-0.010
304.50,-0.006
305.00,-0.000
305.50,0.005
306.00,-0.006
306.50,-0.008
307.00,0.003
307.50,-0.006
308.00,-0.013
308.50,0.004
309.00,0.001
309.50,-0.004
310.00,-0.001
310.50,0.000
311.00,-0.001
311.50,0.002
312.00,-0.004
312.50,-0.002
313.00,0.001
313.50,0.004
314.00,-0.006
314.50,-0.000
315.00,0.021
315.50,-0.002
316.00,-0.010
316.50,-0.001
317.00,-0.009
317.50,0.005
318.00,-0.001
318.50,-0.013
319.00,-0.024
319.50,0.004
320.00,0.007
320.50,-0.003
321.00,-0.018
321.50,0.010
322.00,0.008
322.50,-0.000
323.00,0.017
323.50,-0.016
324.00,0.001
324.50,-0.011
325.00,-0.009
325.50,-0.001
326.00,0.000
326.50,0.011
327.00,-0.019
327.50,0.003
328.00,-0.009
328.50,0.005
329.00,0.004
329.50,-0.002
330.00,0.001
330.50,-0.013
331.00,0.005
331.50,-0.010
332.00,-0.000
332.50,-0.006
333.00,-0.012
333.50,-0.003
334.00,0.012
334.50,-0.005
335.00,-0.035
335.50,-0.004
336.00,-0.004
336.50,-0.026
337.00,0.011
337.50,-0.006
338.00,0.003
338.50,-0.009
339.00,-0.008
339.50,0.008
340.00,-0.031
340.50,-0.271
341.00,-0.155
341.50,0.005
342.00,-0.003
342.50,0.045
343.00,0.117
343.50,0.009
344.00,-0.082
344.50,-0.132
345.00,0.088
345.50,-0.056
346.00,-0.014
346.50,-0.051
347.00,-0.001
347.50,0.048
348.00,0.040
348.50,0.023
349.00,-0.063
349.50,-0.034
350.00,0.036
350.50,-0.026
351.00,0.003
351.50,-0.016
352.00,-0.036
352.50,-0.000
353.00,-0.012
353.50,-0.012
354.00,-0.001
354.50,-0.011
355.00,-0.019
355.50,0.003
356.00,-0.000
356.50,-0.016
357.00,0.010
357.50,-0.008
358.00,-0.009
358.50,-0.022
359.00,-0.004
359.50,-0.008
360.00,-0.004
360.50,0.000
361.00,-0.011
361.50,-0.002
362.00,-0.010
362.50,0.004
363.00,0.000
363.50,0.004
364.00,-0.001
364.50,0.006
365.00,-0.011
365.50,-0.008
366.00,-0.008
366.50,-0.010
367.00,0.004
367.50,0.004
368.00,0.005
368.50,-0.007
369.00,-0.008
369.50,-0.012
370.00,-0.016
370.50,0.001
371.00,-0.017
371.50,0.006
372.00,-0.009
372.50,-0.002
373.00,0.005
373.50,-0.002
374.00,-0.002
374.50,-0.004
375.00,-0.007
375.50,-0.015
376.00,0.011
376.50,0.012
377.00,0.003
377.50,-0.006
378.00,0.002
378.50,-0.008
379.00,0.003
379.50,-0.001
380.00,-0.003
380.50,-0.002
381.00,-0.002
381.50,0.000
382.00,-0.007
382.50,-0.003
383.00,-0.005
383.50,0.003
384.00,-0.004
384.50,-0.007
385.00,0.005
385.50,0.001
386.00,0.007
386.50,-0.000
387.00,-0.002
387.50,-0.001
388.00,-0.002
388.50,-0.006
389.00,0.001
389.50,-0.007
390.00,0.000
390.50,-0.002
391.00,-0.006
391.50,-0.006
392.00,-0.010
392.50,-0.005
393.00,-0.008
393.50,-0.010
394.00,-0.004
394.50,-0.002
395.00,0.012
395.50,0.006
396.00,-0.011
396.50,-0.009
397.00,-0.004
397.50,-0.008
398.00,-0.008
398.50,-0.002
399.00,0.005
399.50,-0.003
400.00,0.002
400.50,-0.000
401.00,-0.003
401.50,-0.002
402.00,-0.006
402.50,-0.005
403.00,0.003
403.50,-0.003
404.00,0.003
404.50,0.003
405.00,0.005
405.50,-0.002
406.00,-0.004
406.50,0.003
407.00,-0.002
407.50,0.006
408.00,-0.005
408.50,0.003
409.00,-0.005
409.50,-0.002
410.00,-0.002
410.50,0.001
411.00,-0.009
411.50,-0.000
412.00,-0.003
412.50,0.001
413.00,0.004
413.50,-0.001
414.00,-0.004
414.50,-0.003
415.00,-0.002
415.50,-0.002
416.00,-0.003
416.50,0.002
417.00,-0.000
417.50,-0.003
418.00,0.000
418.50,-0.002
419.00,-0.010
419.50,-0.001
420.00,-0.003
420.50,-0.003
421.00,-0.005
421.50,0.003
422.00,-0.001
422.50,-0.002
423.00,-0.002
423.50,0.000
424.00,-0.004
424.50,0.006
425.00,-0.005
425.50,-0.002
426.00,0.002
426.50,-0.009
427.00,-0.006
427.50,-0.004
428.00,-0.004
428.50,-0.007
429.00,-0.005
429.50,-0.004
430.00,0.002
430.50,-0.002
431.00,0.007
431.50,-0.002
432.00,-0.002
432.50,-0.001
433.00,0.000
433.50,-0.005
434.00,-0.002
434.50,-0.004
435.00,0.002
435.50,0.005
436.00,-0.001
436.50,-0.003
437.00,0.003
437.50,-0.009
438.00,-0.003
438.50,0.000
439.00,-0.006
439.50,0.005
440.00,-0.002
440.50,0.004
441.00,-0.004
441.50,0.005
442.00,-0.001
442.50,0.003
443.00,-0.000
443.50,-0.003
444.00,-0.000
444.50,0.004
445.00,0.002
445.50,-0.000
446.00,0.005
446.50,-0.001
447.00,-0.004
447.50,0.001
448.00,-0.001
448.50,-0.003
449.00,-0.008
449.50,-0.000
450.00,-0.003
450.50,0.002
451.00,-0.011
451.50,0.003
452.00,-0.001
452.50,0.002
453.00,0.004
453.50,0.003
454.00,-0.008
454.50,0.006
455.00,-0.005
455.50,0.001
456.00,-0.000
456.50,0.003
457.00,-0.001
457.50,0.001
458.00,-0.003
458.50,-0.004
459.00,0.000
459.50,0.004
460.00,-0.000
460.50,-0.005
461.00,-0.005
461.50,-0.003
462.00,-0.005
462.50,0.001
463.00,-0.001
463.50,-0.006
464.00,0.001
464.50,-0.001
465.00,0.003
465.50,-0.004
466.00,-0.002
466.50,-0.003
467.00,0.004
467.50,-0.002
468.00,-0.007
468.50,-0.004
469.00,0.003
469.50,0.001
470.00,0.004
470.50,0.001
471.00,-0.001
471.50,0.002
472.00,0.002
472.50,-0.000
473.00,0.001
473.50,-0.002
474.00,0.003
474.50,0.001
475.00,-0.001
475.50,-0.004
476.00,0.001
476.50,-0.005
477.00,-0.002
477.50,-0.001
478.00,-0.000
478.50,0.000
479.00,0.000
479.50,-0.004
480.00,0.002
480.50,0.002
481.00,-0.005
481.50,-0.004
482.00,-0.008
482.50,-0.001
483.00,0.000
483.50,-0.004
484.00,0.000
484.50,-0.003
485.00,0.006
485.50,-0.003
486.00,-0.003
486.50,-0.009
487.00,-0.004
487.50,-0.001
488.00,0.005
488.50,-0.005
489.00,-0.006
489.50,-0.001
490.00,0.002
490.50,0.003
491.00,-0.004
491.50,-0.003
492.00,0.001
492.50,0.002
493.00,0.001
493.50,-0.003
494.00,0.001
494.50,-0.002
495.00,0.008
495.50,-0.001
496.00,-0.006
496.50,-0.008
497.00,0.002
497.50,-0.002
498.00,-0.004
498.50,-0.001
499.00,-0.003
499.50,0.002
500.00,-0.002
500.50,-0.006
501.00,-0.007
501.50,0.004
502.00,0.001
502.50,-0.001
503.00,-0.001
503.50,-0.001
504.00,-0.010
504.50,0.001
505.00,-0.008
505.50,0.001
506.00,0.002
506.50,-0.006
507.00,0.001
507.50,0.000
508.00,0.003
508.50,0.000
509.00,0.000
509.50,0.001
510.00,-0.002
510.50,-0.004
511.00,0.001
511.50,-0.006
512.00,-0.003
512.50,-0.002
513.00,-0.003
513.50,0.000
514.00,-0.004
514.50,0.002
515.00,-0.000
515.50,-0.007
516.00,0.002
516.50,0.003
517.00,0.001
517.50,-0.005
518.00,0.004
518.50,-0.001
519.00,-0.004
519.50,-0.003
520.00,-0.003
520.50,0.003
521.00,0.000
521.50,-0.002
522.00,0.002
522.50,0.005
523.00,0.002
523.50,-0.005
524.00,-0.004
524.50,-0.003
525.00,-0.006
525.50,-0.004
526.00,-0.005
526.50,0.000
527.00,-0.003
527.50,-0.000
528.00,0.001
528.50,0.000
529.00,0.006
529.50,-0.002
530.00,0.001
530.50,-0.001
531.00,-0.002
531.50,0.003
532.00,0.005
532.50,0.003
533.00,0.006
533.50,-0.000
534.00,-0.002
534.50,0.002
535.00,0.004
535.50,-0.000
536.00,-0.004
536.50,-0.002
537.00,-0.002
537.50,0.002
538.00,-0.002
538.50,0.000
539.00,0.000
539.50,0.000
540.00,-0.001
540.50,-0.004
541.00,-0.004
541.50,0.001
542.00,-0.001
542.50,-0.001
543.00,-0.004
543.50,0.003
544.00,0.004
544.50,0.003
545.00,0.002
545.50,-0.000
546.00,0.003
546.50,-0.001
547.00,0.000
547.50,-0.006
548.00,-0.002
548.50,-0.000
549.00,0.002
549.50,-0.002
550.00,-0.001
550.50,0.002
551.00,-0.001
551.50,-0.004
552.00,0.002
552.50,-0.001
553.00,0.004
553.50,-0.002
554.00,-0.004
554.50,-0.003
555.00,-0.002
555.50,0.002
556.00,-0.005
556.50,-0.002
557.00,0.002
557.50,-0.005
558.00,0.002
558.50,-0.001
559.00,0.000
559.50,-0.002
560.00,0.001
560.50,0.001
561.00,0.000
561.50,0.002
562.00,-0.001
562.50,-0.001
563.00,-0.001
563.50,0.001
564.00,-0.005
564.50,0.000
565.00,0.002
565.50,0.000
566.00,-0.003
566.50,-0.001
567.00,-0.003
567.50,-0.001
568.00,0.002
568.50,-0.004
569.00,-0.001
569.50,-0.001
570.00,0.002
570.50,0.000
571.00,0.000
571.50,-0.001
572.00,-0.000
572.50,-0.003
573.00,0.001
573.50,-0.000
574.00,-0.003
574.50,-0.001
575.00,-0.001
575.50,0.002
576.00,-0.002
576.50,-0.002
577.00,0.001
577.50,0.001
578.00,0.001
578.50,-0.001
579.00,-0.002
579.50,0.001
580.00,-0.002
580.50,-0.003
581.00,-0.001
581.50,0.002
582.00,-0.002
582.50,0.000
583.00,-0.003
583.50,0.001
584.00,0.000
584.50,0.001
585.00,-0.001
585.50,-0.006
586.00,0.005
586.50,0.002
587.00,-0.004
587.50,0.001
588.00,0.001
588.50,-0.004
589.00,-0.003
589.50,0.000
590.00,0.000
590.50,-0.004
591.00,0.002
591.50,0.002
592.00,-0.001
592.50,-0.001
593.00,-0.004
593.50,-0.001
594.00,-0.005
594.50,-0.000
595.00,-0.002
595.50,0.003
596.00,0.002
596.50,-0.002
597.00,-0.001
597.50,-0.002
598.00,-0.005
598.50,0.000
599.00,-0.001
599.50,0.001
600.00,-0.001
600.50,0.001
601.00,0.002
601.50,0.000
602.00,-0.002
602.50,-0.001
603.00,-0.001
603.50,-0.001
604.00,-0.001
604.50,0.001
605.00,0.000
605.50,0.001
606.00,-0.000
606.50,0.000
607.00,-0.004
607.50,0.000
608.00,0.001
608.50,0.000
609.00,-0.007
609.50,-0.002
610.00,0.006
610.50,-0.003
611.00,-0.005
611.50,0.001
612.00,0.000
612.50,-0.002
613.00,-0.001
613.50,-0.001
614.00,0.001
614.50,0.003
615.00,0.001
615.50,-0.000
616.00,-0.001
616.50,-0.005
617.00,-0.003
617.50,-0.002
618.00,-0.001
618.50,-0.001
619.00,0.001
619.50,-0.002
620.00,0.000
620.50,-0.003
621.00,0.002
621.50,-0.004
622.00,-0.002
622.50,0.000
623.00,0.003
623.50,0.003
624.00,-0.004
624.50,-0.001
625.00,0.001
625.50,-0.002
626.00,-0.003
626.50,0.000
627.00,-0.003
627.50,-0.000
628.00,0.004
628.50,-0.001
629.00,-0.004
629.50,0.001
630.00,-0.003
630.50,-0.003
631.00,0.001
631.50,0.004
632.00,0.002
632.50,-0.001
633.00,-0.002
633.50,0.004
634.00,0.001
634.50,0.002
635.00,0.000
635.50,-0.004
636.00,-0.002
636.50,0.003
637.00,0.000
637.50,-0.002
638.00,-0.002
638.50,-0.001
639.00,0.002
639.50,0.000
640.00,-0.005
640.50,-0.002
641.00,-0.001
641.50,0.009
642.00,-0.001
642.50,-0.002
643.00,-0.003
643.50,0.003
644.00,-0.002
644.50,-0.005
645.00,-0.002
645.50,-0.003
646.00,-0.007
646.50,-0.001
647.00,-0.000
647.50,0.006
648.00,-0.004
648.50,0.002
649.00,-0.001
649.50,-0.006
650.00,0.002
650.50,-0.000
651.00,0.001
651.50,-0.007
652.00,-0.002
652.50,-0.002
653.00,-0.004
653.50,-0.001
654.00,-0.010
654.50,0.004
655.00,0.007
655.50,-0.002
656.00,0.002
656.50,0.006
657.00,-0.002
657.50,0.005
658.00,0.002
658.50,-0.001
659.00,0.002
659.50,-0.001
660.00,-0.001
660.50,0.001
661.00,-0.002
661.50,-0.000
662.00,-0.004
662.50,-0.000
663.00,0.000
663.50,-0.002
664.00,0.000
664.50,0.003
665.00,-0.000
665.50,0.001
666.00,0.002
666.50,-0.004
667.00,-0.001
667.50,0.001
668.00,-0.001
668.50,0.002
669.00,0.001
669.50,-0.001
670.00,0.002
670.50,0.003
671.00,0.001
671.50,0.000
672.00,0.001
672.50,-0.003
673.00,-0.003
673.50,0.002
674.00,-0.003
674.50,0.002
675.00,-0.005
675.50,-0.001
676.00,-0.002
676.50,-0.000
677.00,-0.002
677.50,0.000
678.00,0.002
678.50,-0.000
679.00,-0.003
679.50,-0.001
680.00,0.003
680.50,-0.001
681.00,0.003
681.50,0.007
682.00,0.009
682.50,0.021
683.00,0.033
683.50,0.052
684.00,0.081
684.50,0.127
685.00,0.192
685.50,0.274
686.00,0.398
686.50,0.545
687.00,0.754
687.50,1.022
688.00,1.373
688.50,1.781
689.00,2.267
689.50,2.874
690.00,3.596
690.50,4.428
691.00,5.395
691.50,6.435
692.00,7.542
692.50,8.884
693.00,10.202
693.50,11.803
694.00,13.304
694.50,15.010
695.00,16.759
695.50,18.574
696.00,20.455
696.50,22.407
697.00,24.434
697.50,26.564
698.00,28.614
698.50,30.662
699.00,32.682
699.50,34.817
700.00,36.885
700.50,38.992
701.00,40.919
701.50,42.840
702.00,44.947
702.50,46.956
703.00,48.524
703.50,50.416
704.00,51.888
704.50,53.738
705.00,55.378
705.50,56.659
706.00,58.236
706.50,59.651
707.00,61.073
707.50,62.392
708.00,63.385
708.50,64.694
709.00,65.899
709.50,66.782
710.00,67.705
710.50,68.541
711.00,69.781
711.50,70.363
712.00,71.325
712.50,71.988
713.00,72.747
713.50,73.752
714.00,74.115
714.50,74.739
715.00,75.413
715.50,76.095
716.00,76.554
716.50,77.249
717.00,77.646
717.50,77.971
718.00,78.595
718.50,78.837
719.00,78.967
719.50,79.873
720.00,80.017
720.50,80.182
721.00,80.525
721.50,80.920
722.00,81.390
722.50,81.534
723.00,81.640
723.50,81.863
724.00,81.906
724.50,82.350
725.00,82.668
725.50,82.737
726.00,82.976
726.50,83.030
727.00,83.220
727.50,83.239
728.00,83.609
728.50,83.560
729.00,83.792
729.50,83.668
730.00,83.944
730.50,83.987
731.00,83.953
731.50,84.527
732.00,84.508
732.50,84.620
733.00,84.772
733.50,84.742
734.00,84.641
734.50,84.796
735.00,85.133
735.50,85.067
736.00,85.025
736.50,85.311
737.00,85.598
737.50,85.341
738.00,85.214
738.50,85.249
739.00,85.199
739.50,85.370
740.00,85.603
740.50,85.578
741.00,85.667
741.50,85.605
742.00,85.798
742.50,85.480
743.00,85.683
743.50,85.426
744.00,85.987
744.50,85.712
745.00,85.916
745.50,85.655
746.00,85.702
746.50,85.581
747.00,85.651
747.50,85.699
748.00,86.153
748.50,86.243
749.00,85.901
749.50,86.137
750.00,86.073
750.50,85.999
751.00,86.289
751.50,86.140
752.00,85.784
752.50,86.310
753.00,85.799
753.50,86.055
754.00,85.834
754.50,86.048
755.00,86.056
755.50,86.296
756.00,86.377
756.50,86.047
757.00,85.882
757.50,85.887
758.00,86.077
758.50,86.325
759.00,86.126
759.50,85.994
760.00,86.020
760.50,86.046
761.00,86.061
761.50,86.146
762.00,86.497
762.50,85.934
763.00,85.789
763.50,86.463
764.00,86.082
764.50,86.429
765.00,86.094
765.50,86.227
766.00,86.561
766.50,86.002
767.00,85.921
767.50,86.280
768.00,86.324
768.50,86.244
769.00,86.188
769.50,85.900
770.00,85.639
770.50,86.037
771.00,86.175
771.50,85.930
772.00,85.662
772.50,86.258
773.00,86.181
773.50,85.961
774.00,85.747
774.50,86.077
775.00,86.096
775.50,86.276
776.00,86.189
776.50,86.274
777.00,85.679
777.50,85.947
778.00,86.212
778.50,86.047
779.00,85.994
779.50,86.281
780.00,86.380
780.50,86.337
781.00,86.008
781.50,86.038
782.00,86.110
782.50,85.979
783.00,86.155
783.50,86.558
784.00,86.268
784.50,85.864
785.00,86.008
785.50,86.253
786.00,86.077
786.50,86.065
787.00,86.158
787.50,86.021
788.00,86.129
788.50,85.765
789.00,86.208
789.50,85.868
790.00,85.869
790.50,86.236
791.00,85.907
791.50,86.088
792.00,86.136
792.50,85.779
793.00,86.077
793.50,85.935
794.00,85.825
794.50,86.089
795.00,86.002
795.50,86.196
796.00,86.323
796.50,85.402
797.00,86.073
797.50,85.896
798.00,85.705
798.50,85.805
799.00,85.608
799.50,86.303
800.00,85.535
800.50,85.599
801.00,86.199
801.50,85.907
802.00,86.392
802.50,85.905
803.00,86.170
803.50,85.542
804.00,86.034
804.50,86.119
805.00,85.196
805.50,85.598
806.00,85.258
806.50,85.613
807.00,86.035
807.50,85.834
808.00,86.529
808.50,85.718
809.00,85.524
809.50,85.259
810.00,85.833
810.50,85.860
811.00,85.874
811.50,85.765
812.00,85.630
812.50,86.158
813.00,86.073
813.50,85.405
814.00,85.305
814.50,85.980
815.00,85.695
815.50,86.080
816.00,85.929
816.50,85.776
817.00,84.722
817.50,85.372
818.00,85.720
818.50,86.196
819.00,85.387
819.50,85.379
820.00,85.417
820.50,85.892
821.00,85.795
821.50,85.833
822.00,85.479
822.50,85.687
823.00,86.014
823.50,85.289
824.00,85.992
824.50,85.806
825.00,85.939
825.50,85.961
826.00,85.828
826.50,85.343
827.00,85.204
827.50,85.463
828.00,85.934
828.50,85.256
829.00,84.967
829.50,85.960
830.00,85.753
830.50,85.823
831.00,85.458
831.50,85.572
832.00,85.228
832.50,85.695
833.00,86.049
833.50,85.860
834.00,85.576
834.50,85.678
835.00,85.310
835.50,85.921
836.00,85.043
836.50,85.091
837.00,85.392
837.50,85.367
838.00,85.700
838.50,86.091
839.00,85.664
839.50,85.092
840.00,85.317
840.50,86.070
841.00,85.088
841.50,85.838
842.00,85.374
842.50,85.680
843.00,86.085
843.50,85.250
844.00,85.639
844.50,85.603
845.00,86.100
845.50,85.488
846.00,85.599
846.50,85.565
847.00,85.147
847.50,86.067
848.00,84.941
848.50,85.595
849.00,85.218
849.50,85.452
850.00,85.362
850.50,85.296
851.00,84.944
851.50,85.588
852.00,85.868
852.50,85.774
853.00,85.732
853.50,85.572
854.00,85.355
854.50,85.453
855.00,85.091
855.50,85.925
856.00,86.277
856.50,85.851
857.00,85.322
857.50,85.005
858.00,85.645
858.50,85.275
859.00,85.325
859.50,85.535
860.00,86.048
860.50,85.676
861.00,85.297
861.50,85.523
862.00,85.429
862.50,85.874
863.00,85.706
863.50,85.883
864.00,85.901
864.50,86.303
865.00,85.889
865.50,85.320
866.00,85.130
866.50,85.831
867.00,85.452
867.50,85.780
868.00,85.845
868.50,85.903
869.00,86.040
869.50,85.993
870.00,85.521
870.50,86.172
871.00,85.494
871.50,86.301
872.00,85.296
872.50,85.903
873.00,85.830
873.50,85.482
874.00,86.293
874.50,85.045
875.00,86.735
875.50,84.922
876.00,87.013
876.50,86.515
877.00,86.139
877.50,86.477
878.00,84.997
878.50,85.436
879.00,84.972
879.50,85.629
880.00,85.627
880.50,85.734
881.00,86.010
881.50,85.913
882.00,86.781
882.50,85.096
883.00,84.992
883.50,85.606
884.00,85.589
884.50,84.346
885.00,85.973
885.50,85.378
886.00,87.512
886.50,86.024
887.00,85.995
887.50,84.313
888.00,87.387
888.50,86.122
889.00,87.935
889.50,86.167
890.00,84.915
890.50,87.707
891.00,85.863
891.50,86.121
892.00,83.923
892.50,84.582
893.00,86.184
893.50,88.237
894.00,87.639
894.50,84.925
895.00,86.369
895.50,85.530
896.00,85.730
896.50,85.173
897.00,87.842
897.50,83.215
898.00,81.901
898.50,86.215
899.00,85.654
899.50,87.305
900.00,88.166
900.50,86.644
901.00,86.362
901.50,86.444
902.00,86.422
902.50,86.531
903.00,86.388
903.50,86.493
904.00,86.698
904.50,86.472
905.00,86.679
905.50,86.458
906.00,86.448
906.50,86.375
907.00,86.350
907.50,86.479
908.00,86.411
908.50,86.610
909.00,86.409
909.50,86.389
910.00,86.444
910.50,86.555
911.00,86.415
911.50,86.488
912.00,86.364
912.50,86.452
913.00,86.561
913.50,86.401
914.00,86.403
914.50,86.528
915.00,86.522
915.50,86.345
916.00,86.407
916.50,86.255
917.00,86.417
917.50,86.583
918.00,86.490
918.50,86.373
919.00,86.479
919.50,86.418
920.00,86.425
920.50,86.388
921.00,86.343
921.50,86.480
922.00,86.356
922.50,86.433
923.00,86.495
923.50,86.373
924.00,86.462
924.50,86.431
925.00,86.556
925.50,86.433
926.00,86.422
926.50,86.425
927.00,86.454
927.50,86.485
928.00,86.467
928.50,86.434
929.00,86.367
929.50,86.403
930.00,86.448
930.50,86.466
931.00,86.397
931.50,86.388
932.00,86.524
932.50,86.467
933.00,86.391
933.50,86.394
934.00,86.509
934.50,86.432
935.00,86.367
935.50,86.504
936.00,86.399
936.50,86.439
937.00,86.400
937.50,86.382
938.00,86.497
938.50,86.413
939.00,86.355
939.50,86.498
940.00,86.415
940.50,86.381
941.00,86.448
941.50,86.427
942.00,86.410
942.50,86.410
943.00,86.390
943.50,86.444
944.00,86.417
944.50,86.391
945.00,86.392
945.50,86.404
946.00,86.460
946.50,86.427
947.00,86.434
947.50,86.356
948.00,86.421
948.50,86.429
949.00,86.372
949.50,86.440
950.00,86.302
950.50,86.449
951.00,86.375
951.50,86.404
952.00,86.427
952.50,86.430
953.00,86.417
953.50,86.416
954.00,86.387
954.50,86.339
955.00,86.413
955.50,86.388
956.00,86.352
956.50,86.380
957.00,86.363
957.50,86.368
958.00,86.349
958.50,86.415
959.00,86.384
959.50,86.369
960.00,86.355
960.50,86.347
961.00,86.490
961.50,86.347
962.00,86.415
962.50,86.333
963.00,86.388
963.50,86.336
964.00,86.413
964.50,86.401
965.00,86.315
965.50,86.363
966.00,86.380
966.50,86.417
967.00,86.390
967.50,86.378
968.00,86.370
968.50,86.381
969.00,86.407
969.50,86.395
970.00,86.408
970.50,86.421
971.00,86.360
971.50,86.351
972.00,86.381
972.50,86.339
973.00,86.439
973.50,86.389
974.00,86.436
974.50,86.369
975.00,86.366
975.50,86.373
976.00,86.334
976.50,86.364
977.00,86.380
977.50,86.420
978.00,86.384
978.50,86.393
979.00,86.419
979.50,86.406
980.00,86.394
980.50,86.328
981.00,86.454
981.50,86.418
982.00,86.404
982.50,86.426
983.00,86.378
983.50,86.373
984.00,86.447
984.50,86.415
985.00,86.372
985.50,86.393
986.00,86.448
986.50,86.403
987.00,86.425
987.50,86.429
988.00,86.425
988.50,86.469
989.00,86.420
989.50,86.418
990.00,86.401
990.50,86.412
991.00,86.395
991.50,86.378
992.00,86.420
992.50,86.430
993.00,86.392
993.50,86.391
994.00,86.398
994.50,86.377
995.00,86.384
995.50,86.392
996.00,86.384
996.50,86.362
997.00,86.380
997.50,86.396
998.00,86.386
998.50,86.462
999.00,86.386
999.50,86.375
1000.00,86.435
1000.50,86.401
1001.00,86.394
1001.50,86.387
1002.00,86.410
1002.50,86.401
1003.00,86.370
1003.50,86.399
1004.00,86.413
1004.50,86.457
1005.00,86.409
1005.50,86.382
1006.00,86.369
1006.50,86.363
1007.00,86.422
1007.50,86.421
1008.00,86.407
1008.50,86.424
1009.00,86.403
1009.50,86.372
1010.00,86.437
1010.50,86.398
1011.00,86.353
1011.50,86.356
1012.00,86.381
1012.50,86.428
1013.00,86.398
1013.50,86.373
1014.00,86.424
1014.50,86.379
1015.00,86.402
1015.50,86.393
1016.00,86.388
1016.50,86.391
1017.00,86.355
1017.50,86.419
1018.00,86.405
1018.50,86.427
1019.00,86.368
1019.50,86.397
1020.00,86.406
1020.50,86.347
1021.00,86.432
1021.50,86.405
1022.00,86.401
1022.50,86.386
1023.00,86.446
1023.50,86.374
1024.00,86.414
1024.50,86.386
1025.00,86.402
1025.50,86.378
1026.00,86.393
1026.50,86.396
1027.00,86.385
1027.50,86.379
1028.00,86.386
1028.50,86.377
1029.00,86.376
1029.50,86.375
1030.00,86.391
1030.50,86.382
1031.00,86.386
1031.50,86.410
1032.00,86.420
1032.50,86.370
1033.00,86.374
1033.50,86.376
1034.00,86.398
1034.50,86.342
1035.00,86.393
1035.50,86.395
1036.00,86.368
1036.50,86.386
1037.00,86.398
1037.50,86.385
1038.00,86.376
1038.50,86.386
1039.00,86.390
1039.50,86.399
1040.00,86.398
1040.50,86.398
1041.00,86.404
1041.50,86.446
1042.00,86.394
1042.50,86.379
1043.00,86.375
1043.50,86.397
1044.00,86.435
1044.50,86.390
1045.00,86.374
1045.50,86.373
1046.00,86.405
1046.50,86.410
1047.00,86.378
1047.50,86.405
1048.00,86.400
1048.50,86.377
1049.00,86.381
1049.50,86.380
1050.00,86.365
1050.50,86.426
1051.00,86.406
1051.50,86.379
1052.00,86.412
1052.50,86.388
1053.00,86.441
1053.50,86.391
1054.00,86.400
1054.50,86.389
1055.00,86.406
1055.50,86.415
1056.00,86.424
1056.50,86.379
1057.00,86.436
1057.50,86.388
1058.00,86.419
1058.50,86.420
1059.00,86.386
1059.50,86.482
1060.00,86.394
1060.50,86.403
1061.00,86.386
1061.50,86.422
1062.00,86.406
1062.50,86.413
1063.00,86.411
1063.50,86.414
1064.00,86.421
1064.50,86.405
1065.00,86.419
1065.50,86.383
1066.00,86.414
1066.50,86.394
1067.00,86.428
1067.50,86.405
1068.00,86.423
1068.50,86.425
1069.00,86.423
1069.50,86.411
1070.00,86.426
1070.50,86.412
1071.00,86.407
1071.50,86.426
1072.00,86.407
1072.50,86.407
1073.00,86.408
1073.50,86.436
1074.00,86.397
1074.50,86.400
1075.00,86.411
1075.50,86.431
1076.00,86.397
1076.50,86.434
1077.00,86.407
1077.50,86.425
1078.00,86.412
1078.50,86.445
1079.00,86.418
1079.50,86.444
1080.00,86.447
1080.50,86.441
1081.00,86.425
1081.50,86.476
1082.00,86.444
1082.50,86.441
1083.00,86.417
1083.50,86.446
1084.00,86.450
1084.50,86.471
1085.00,86.442
1085.50,86.442
1086.00,86.463
1086.50,86.450
1087.00,86.463
1087.50,86.480
1088.00,86.449
1088.50,86.446
1089.00,86.450
1089.50,86.451
1090.00,86.466
1090.50,86.461
1091.00,86.482
1091.50,86.467
1092.00,86.475
1092.50,86.441
1093.00,86.419
1093.50,86.454
1094.00,86.456
1094.50,86.459
1095.00,86.436
1095.50,86.491
1096.00,86.450
1096.50,86.478
1097.00,86.487
1097.50,86.490
1098.00,86.475
1098.50,86.485
1099.00,86.449
1099.50,86.451
1100.00,86.464
1100.50,86.479
1101.00,86.459
1101.50,86.467
1102.00,86.499
1102.50,86.480
1103.00,86.487
1103.50,86.493
1104.00,86.487
1104.50,86.515
1105.00,86.477
1105.50,86.508
1106.00,86.513
1106.50,86.480
1107.00,86.501
1107.50,86.498
1108.00,86.507
1108.50,86.497
1109.00,86.497
1109.50,86.498
1110.00,86.511
1110.50,86.487
1111.00,86.514
1111.50,86.461
1112.00,86.511
1112.50,86.488
1113.00,86.484
1113.50,86.502
1114.00,86.488
1114.50,86.500
1115.00,86.488
1115.50,86.465
1116.00,86.504
1116.50,86.500
1117.00,86.526
1117.50,86.463
1118.00,86.523
1118.50,86.529
1119.00,86.506
1119.50,86.524
1120.00,86.497
1120.50,86.493
1121.00,86.506
1121.50,86.523
1122.00,86.526
1122.50,86.490
1123.00,86.572
1123.50,86.457
1124.00,86.526
1124.50,86.580
1125.00,86.555
1125.50,86.521
1126.00,86.525
1126.50,86.517
1127.00,86.534
1127.50,86.514
1128.00,86.538
1128.50,86.551
1129.00,86.587
1129.50,86.518
1130.00,86.521
1130.50,86.547
1131.00,86.554
1131.50,86.524
1132.00,86.547
1132.50,86.543
1133.00,86.538
1133.50,86.551
1134.00,86.606
1134.50,86.549
1135.00,86.508
1135.50,86.636
1136.00,86.491
1136.50,86.599
1137.00,86.581
1137.50,86.541
1138.00,86.584
1138.50,86.545
1139.00,86.555
1139.50,86.547
1140.00,86.569
1140.50,86.559
1141.00,86.565
1141.50,86.593
1142.00,86.579
1142.50,86.577
1143.00,86.582
1143.50,86.568
1144.00,86.516
1144.50,86.592
1145.00,86.594
1145.50,86.578
1146.00,86.611
1146.50,86.595
1147.00,86.578
1147.50,86.591
1148.00,86.615
1148.50,86.574
1149.00,86.628
1149.50,86.559
1150.00,86.630
1150.50,86.632
1151.00,86.619
1151.50,86.620
1152.00,86.627
1152.50,86.601
1153.00,86.620
1153.50,86.619
1154.00,86.636
1154.50,86.621
1155.00,86.633
1155.50,86.635
1156.00,86.638
1156.50,86.627
1157.00,86.633
1157.50,86.640
1158.00,86.629
1158.50,86.658
1159.00,86.615
1159.50,86.641
1160.00,86.641
1160.50,86.653
1161.00,86.659
1161.50,86.644
1162.00,86.646
1162.50,86.654
1163.00,86.658
1163.50,86.591
1164.00,86.652
1164.50,86.673
1165.00,86.673
1165.50,86.654
1166.00,86.676
1166.50,86.670
1167.00,86.671
1167.50,86.678
1168.00,86.670
1168.50,86.683
1169.00,86.669
1169.50,86.678
1170.00,86.682
1170.50,86.692
1171.00,86.680
1171.50,86.675
1172.00,86.691
1172.50,86.692
1173.00,86.683
1173.50,86.682
1174.00,86.751
1174.50,86.680
1175.00,86.703
1175.50,86.701
1176.00,86.704
1176.50,86.732
1177.00,86.708
1177.50,86.712
1178.00,86.730
1178.50,86.723
1179.00,86.707
1179.50,86.727
1180.00,86.726
1180.50,86.697
1181.00,86.720
1181.50,86.698
1182.00,86.711
1182.50,86.704
1183.00,86.712
1183.50,86.725
1184.00,86.709
1184.50,86.740
1185.00,86.742
1185.50,86.715
1186.00,86.749
1186.50,86.731
1187.00,86.733
1187.50,86.729
1188.00,86.749
1188.50,86.735
1189.00,86.753
1189.50,86.748
1190.00,86.745
1190.50,86.760
1191.00,86.756
1191.50,86.776
1192.00,86.776
1192.50,86.753
1193.00,86.760
1193.50,86.761
1194.00,86.781
1194.50,86.798
1195.00,86.810
1195.50,86.795
1196.00,86.785
1196.50,86.803
1197.00,86.806
1197.50,86.787
1198.00,86.797
1198.50,86.784
1199.00,86.788
1199.50,86.812
1200.00,86.775
1200.50,86.781
1201.00,86.822
1201.50,86.830
1202.00,86.803
1202.50,86.786
1203.00,86.820
1203.50,86.827
1204.00,86.792
1204.50,86.806
1205.00,86.799
1205.50,86.810
1206.00,86.805
1206.50,86.826
1207.00,86.794
1207.50,86.807
1208.00,86.797
1208.50,86.809
1209.00,86.828
1209.50,86.832
1210.00,86.841
1210.50,86.833
1211.00,86.831
1211.50,86.834
1212.00,86.831
1212.50,86.820
1213.00,86.878
1213.50,86.838
1214.00,86.853
1214.50,86.858
1215.00,86.843
1215.50,86.924
1216.00,86.824
1216.50,86.864
1217.00,86.848
1217.50,86.871
1218.00,86.866
1218.50,86.848
1219.00,86.878
1219.50,86.866
1220.00,86.866
1220.50,86.899
1221.00,86.868
1221.50,86.894
1222.00,86.883
1222.50,86.917
1223.00,86.911
1223.50,86.894
1224.00,86.901
1224.50,86.895
1225.00,86.896
1225.50,86.896
1226.00,86.883
1226.50,86.906
1227.00,86.914
1227.50,86.906
1228.00,86.919
1228.50,86.920
1229.00,86.924
1229.50,86.912
1230.00,86.949
1230.50,86.928
1231.00,86.932
1231.50,86.953
1232.00,86.924
1232.50,86.929
1233.00,86.900
1233.50,86.930
1234.00,86.897
1234.50,86.913
1235.00,86.931
1235.50,86.940
1236.00,86.932
1236.50,86.941
1237.00,86.947
1237.50,86.974
1238.00,86.935
1238.50,86.952
1239.00,86.967
1239.50,86.957
1240.00,86.964
1240.50,86.952
1241.00,86.973
1241.50,86.961
1242.00,86.981
1242.50,86.971
1243.00,86.986
1243.50,86.997
1244.00,86.987
1244.50,86.985
1245.00,86.993
1245.50,87.011
1246.00,86.983
1246.50,86.983
1247.00,86.983
1247.50,86.994
1248.00,86.994
1248.50,87.020
1249.00,87.015
1249.50,87.048
1250.00,86.997
1250.50,87.019
1251.00,86.997
1251.50,87.012
1252.00,87.091
1252.50,87.037
1253.00,87.046
1253.50,87.038
1254.00,87.050
1254.50,87.060
1255.00,87.054
1255.50,87.053
1256.00,87.050
1256.50,87.068
1257.00,87.044
1257.50,87.042
1258.00,87.050
1258.50,87.063
1259.00,87.058
1259.50,87.072
1260.00,87.075
1260.50,87.089
1261.00,87.073
1261.50,87.083
1262.00,87.080
1262.50,87.103
1263.00,87.077
1263.50,87.072
1264.00,87.098
1264.50,87.072
1265.00,87.091
1265.50,87.096
1266.00,87.089
1266.50,87.126
1267.00,87.105
1267.50,87.123
1268.00,87.130
1268.50,87.122
1269.00,87.126
1269.50,87.119
1270.00,87.143
1270.50,87.131
1271.00,87.139
1271.50,87.127
1272.00,87.154
1272.50,87.168
1273.00,87.142
1273.50,87.156
1274.00,87.173
1274.50,87.131
1275.00,87.168
1275.50,87.129
1276.00,87.171
1276.50,87.171
1277.00,87.201
1277.50,87.198
1278.00,87.183
1278.50,87.244
1279.00,87.202
1279.50,87.198
1280.00,87.189
1280.50,87.209
1281.00,87.203
1281.50,87.204
1282.00,87.235
1282.50,87.205
1283.00,87.210
1283.50,87.219
1284.00,87.229
1284.50,87.220
1285.00,87.217
1285.50,87.253
1286.00,87.229
1286.50,87.227
1287.00,87.235
1287.50,87.224
1288.00,87.282
1288.50,87.241
1289.00,87.245
1289.50,87.272
1290.00,87.249
1290.50,87.266
1291.00,87.266
1291.50,87.258
1292.00,87.252
1292.50,87.294
1293.00,87.291
1293.50,87.271
1294.00,87.293
1294.50,87.288
1295.00,87.283
1295.50,87.297
1296.00,87.269
1296.50,87.298
1297.00,87.303
1297.50,87.301
1298.00,87.323
1298.50,87.323
1299.00,87.325
1299.50,87.327
1300.00,87.317
1300.50,87.334
1301.00,87.319
1301.50,87.347
1302.00,87.325
1302.50,87.343
1303.00,87.341
1303.50,87.349
1304.00,87.363
1304.50,87.362
1305.00,87.372
1305.50,87.380
1306.00,87.378
1306.50,87.352
1307.00,87.384
1307.50,87.371
1308.00,87.390
1308.50,87.374
1309.00,87.407
1309.50,87.405
1310.00,87.387
1310.50,87.469
1311.00,87.405
1311.50,87.411
1312.00,87.410
1312.50,87.426
1313.00,87.449
1313.50,87.420
1314.00,87.426
1314.50,87.401
1315.00,87.424
1315.50,87.446
1316.00,87.437
1316.50,87.456
1317.00,87.424
1317.50,87.434
1318.00,87.464
1318.50,87.466
1319.00,87.433
1319.50,87.450
1320.00,87.415
1320.50,87.295
1321.00,87.309
1321.50,87.324
1322.00,87.329
1322.50,87.323
1323.00,87.341
1323.50,87.375
1324.00,87.340
1324.50,87.333
1325.00,87.330
1325.50,87.365
1326.00,87.355
1326.50,87.326
1327.00,87.357
1327.50,87.368
1328.00,87.373
1328.50,87.387
1329.00,87.384
1329.50,87.406
1330.00,87.391
1330.50,87.414
1331.00,87.398
1331.50,87.400
1332.00,87.398
1332.50,87.417
1333.00,87.419
1333.50,87.410
1334.00,87.436
1334.50,87.430
1335.00,87.434
1335.50,87.433
1336.00,87.454
1336.50,87.478
1337.00,87.491
1337.50,87.492
1338.00,87.476
1338.50,87.498
1339.00,87.509
1339.50,87.485
1340.00,87.484
1340.50,87.505
1341.00,87.501
1341.50,87.550
1342.00,87.556
1342.50,87.546
1343.00,87.525
1343.50,87.539
1344.00,87.545
1344.50,87.540
1345.00,87.550
1345.50,87.539
1346.00,87.552
1346.50,87.524
1347.00,87.566
1347.50,87.547
1348.00,87.596
1348.50,87.572
1349.00,87.549
1349.50,87.582
1350.00,87.471
1350.50,87.521
1351.00,87.493
1351.50,87.549
1352.00,87.536
1352.50,87.638
1353.00,87.617
1353.50,87.531
1354.00,87.648
1354.50,87.508
1355.00,87.715
1355.50,87.502
1356.00,87.430
1356.50,87.830
1357.00,87.643
1357.50,87.567
1358.00,87.704
1358.50,87.447
1359.00,87.747
1359.50,87.511
1360.00,87.169
1360.50,87.510
1361.00,87.813
1361.50,87.609
1362.00,87.549
1362.50,87.818
1363.00,87.661
1363.50,87.425
1364.00,88.339
1364.50,87.254
1365.00,87.511
1365.50,87.775
1366.00,87.650
1366.50,87.412
1367.00,87.869
1367.50,87.294
1368.00,88.040
1368.50,87.694
1369.00,87.772
1369.50,87.577
1370.00,87.440
1370.50,87.633
1371.00,87.757
1371.50,87.999
1372.00,87.609
1372.50,87.786
1373.00,87.700
1373.50,87.785
1374.00,87.697
1374.50,87.720
1375.00,87.805
1375.50,87.783
1376.00,87.598
1376.50,87.836
1377.00,87.720
1377.50,87.639
1378.00,87.879
1378.50,87.552
1379.00,87.776
1379.50,87.406
1380.00,87.956
1380.50,87.568
1381.00,87.795
1381.50,87.377
1382.00,88.066
1382.50,87.150
1383.00,87.904
1383.50,87.927
1384.00,87.501
1384.50,87.913
1385.00,87.547
1385.50,87.688
1386.00,87.804
1386.50,87.675
1387.00,87.544
1387.50,88.064
1388.00,87.472
1388.50,87.719
1389.00,87.636
1389.50,87.618
1390.00,87.559
1390.50,87.531
1391.00,87.505
1391.50,87.322
1392.00,88.399
1392.50,87.332
1393.00,87.583
1393.50,87.426
1394.00,87.112
1394.50,87.526
1395.00,87.471
1395.50,86.768
1396.00,88.113
1396.50,87.249
1397.00,87.303
1397.50,87.303
1398.00,87.255
1398.50,87.024
1399.00,87.479
1399.50,86.888
1400.00,87.153
1400.50,86.667
1401.00,87.424
1401.50,86.942
1402.00,87.045
1402.50,87.096
1403.00,86.947
1403.50,86.991
1404.00,86.506
1404.50,87.487
1405.00,86.635
1405.50,86.897
1406.00,86.780
1406.50,86.911
1407.00,86.847
1407.50,86.757
1408.00,86.784
1408.50,86.729
1409.00,86.982
1409.50,86.757
1410.00,86.814
1410.50,86.816
1411.00,86.775
1411.50,86.837
1412.00,86.859
1412.50,86.723
1413.00,86.734
1413.50,86.940
1414.00,86.843
1414.50,86.684
1415.00,86.849
1415.50,86.805
1416.00,86.817
1416.50,86.791
1417.00,86.918
1417.50,86.783
1418.00,86.744
1418.50,87.001
1419.00,86.865
1419.50,86.888
1420.00,86.889
1420.50,86.906
1421.00,86.979
1421.50,86.926
1422.00,86.975
1422.50,86.965
1423.00,86.933
1423.50,87.082
1424.00,86.941
1424.50,87.043
1425.00,87.079
1425.50,87.043
1426.00,87.067
1426.50,87.097
1427.00,87.099
1427.50,87.167
1428.00,87.067
1428.50,87.166
1429.00,87.183
1429.50,87.209
1430.00,87.162
1430.50,87.250
1431.00,87.227
1431.50,87.175
1432.00,87.311
1432.50,87.243
1433.00,87.273
1433.50,87.289
1434.00,87.195
1434.50,87.343
1435.00,87.352
1435.50,87.424
1436.00,87.360
1436.50,87.388
1437.00,87.448
1437.50,87.358
1438.00,87.438
1438.50,87.433
1439.00,87.524
1439.50,87.445
1440.00,87.516
1440.50,87.444
1441.00,87.590
1441.50,87.486
1442.00,87.511
1442.50,87.623
1443.00,87.552
1443.50,87.568
1444.00,87.613
1444.50,87.517
1445.00,87.694
1445.50,87.606
1446.00,87.613
1446.50,87.698
1447.00,87.645
1447.50,87.705
1448.00,87.701
1448.50,87.620
1449.00,87.695
1449.50,87.670
1450.00,87.748
1450.50,87.724
1451.00,87.738
1451.50,87.733
1452.00,87.803
1452.50,87.760
1453.00,87.768
1453.50,87.815
1454.00,87.825
1454.50,87.772
1455.00,87.915
1455.50,87.785
1456.00,87.818
1456.50,87.835
1457.00,87.850
1457.50,87.872
1458.00,87.855
1458.50,87.884
1459.00,87.898
1459.50,87.883
1460.00,87.972
1460.50,87.838
1461.00,87.942
1461.50,87.935
1462.00,87.928
1462.50,87.889
1463.00,88.008
1463.50,87.924
1464.00,87.984
1464.50,87.936
1465.00,88.067
1465.50,87.939
1466.00,88.019
1466.50,87.967
1467.00,88.011
1467.50,88.033
1468.00,88.019
1468.50,88.026
1469.00,87.998
1469.50,88.162
1470.00,87.946
1470.50,88.140
1471.00,88.063
1471.50,88.057
1472.00,88.136
1472.50,88.052
1473.00,88.115
1473.50,88.131
1474.00,88.122
1474.50,88.158
1475.00,88.136
1475.50,88.174
1476.00,88.178
1476.50,88.160
1477.00,88.279
1477.50,88.220
1478.00,88.182
1478.50,88.207
1479.00,88.201
1479.50,88.279
1480.00,88.259
1480.50,88.235
1481.00,88.217
1481.50,88.253
1482.00,88.236
1482.50,88.257
1483.00,88.262
1483.50,88.262
1484.00,88.284
1484.50,88.304
1485.00,88.281
1485.50,88.303
1486.00,88.299
1486.50,88.377
1487.00,88.308
1487.50,88.329
1488.00,88.331
1488.50,88.339
1489.00,88.341
1489.50,88.363
1490.00,88.348
1490.50,88.372
1491.00,88.395
1491.50,88.361
1492.00,88.394
1492.50,88.387
1493.00,88.388
1493.50,88.412
1494.00,88.440
1494.50,88.401
1495.00,88.402
1495.50,88.433
1496.00,88.411
1496.50,88.405
1497.00,88.414
1497.50,88.458
1498.00,88.432
1498.50,88.432
1499.00,88.491
1499.50,88.446
1500.00,88.458
1500.50,88.395
1501.00,88.454
1501.50,88.523
1502.00,88.458
1502.50,88.466
1503.00,88.520
1503.50,88.467
1504.00,88.486
1504.50,88.498
1505.00,88.505
1505.50,88.507
1506.00,88.483
1506.50,88.497
1507.00,88.519
1507.50,88.522
1508.00,88.486
1508.50,88.518
1509.00,88.528
1509.50,88.520
1510.00,88.531
1510.50,88.503
1511.00,88.526
1511.50,88.562
1512.00,88.550
1512.50,88.568
1513.00,88.565
1513.50,88.568
1514.00,88.572
1514.50,88.565
1515.00,88.600
1515.50,88.577
1516.00,88.556
1516.50,88.619
1517.00,88.605
1517.50,88.565
1518.00,88.612
1518.50,88.599
1519.00,88.593
1519.50,88.604
1520.00,88.592
1520.50,88.621
1521.00,88.611
1521.50,88.633
1522.00,88.618
1522.50,88.631
1523.00,88.640
1523.50,88.613
1524.00,88.623
1524.50,88.657
1525.00,88.587
1525.50,88.647
1526.00,88.610
1526.50,88.628
1527.00,88.648
1527.50,88.634
1528.00,88.659
1528.50,88.650
1529.00,88.623
1529.50,88.673
1530.00,88.601
1530.50,88.654
1531.00,88.664
1531.50,88.619
1532.00,88.673
1532.50,88.633
1533.00,88.662
1533.50,88.655
1534.00,88.691
1534.50,88.671
1535.00,88.657
1535.50,88.623
1536.00,88.668
1536.50,88.664
1537.00,88.648
1537.50,88.658
1538.00,88.690
1538.50,88.665
1539.00,88.643
1539.50,88.707
1540.00,88.678
1540.50,88.634
1541.00,88.682
1541.50,88.641
1542.00,88.668
1542.50,88.645
1543.00,88.651
1543.50,88.640
1544.00,88.682
1544.50,88.640
1545.00,88.633
1545.50,88.652
1546.00,88.683
1546.50,88.657
1547.00,88.661
1547.50,88.661
1548.00,88.658
1548.50,88.633
1549.00,88.674
1549.50,88.635
1550.00,88.649
1550.50,88.675
1551.00,88.684
1551.50,88.710
1552.00,88.664
1552.50,88.692
1553.00,88.702
1553.50,88.683
1554.00,88.639
1554.50,88.638
1555.00,88.674
1555.50,88.655
1556.00,88.664
1556.50,88.698
1557.00,88.656
1557.50,88.649
1558.00,88.674
1558.50,88.660
1559.00,88.678
1559.50,88.756
1560.00,88.668
1560.50,88.695
1561.00,88.649
1561.50,88.712
1562.00,88.673
1562.50,88.690
1563.00,88.679
1563.50,88.651
1564.00,88.667
1564.50,88.678
1565.00,88.700
1565.50,88.690
1566.00,88.705
1566.50,88.661
1567.00,88.753
1567.50,88.676
1568.00,88.714
1568.50,88.683
1569.00,88.707
1569.50,88.690
1570.00,88.687
1570.50,88.695
1571.00,88.671
1571.50,88.676
1572.00,88.708
1572.50,88.668
1573.00,88.710
1573.50,88.665
1574.00,88.663
1574.50,88.686
1575.00,88.725
1575.50,88.689
1576.00,88.647
1576.50,88.661
1577.00,88.706
1577.50,88.658
1578.00,88.679
1578.50,88.651
1579.00,88.667
1579.50,88.649
1580.00,88.656
1580.50,88.633
1581.00,88.684
1581.50,88.660
1582.00,88.683
1582.50,88.684
1583.00,88.646
1583.50,88.663
1584.00,88.648
1584.50,88.678
1585.00,88.646
1585.50,88.687
1586.00,88.647
1586.50,88.640
1587.00,88.655
1587.50,88.627
1588.00,88.667
1588.50,88.675
1589.00,88.662
1589.50,88.672
1590.00,88.672
1590.50,88.624
1591.00,88.652
1591.50,88.617
1592.00,88.592
1592.50,88.630
1593.00,88.650
1593.50,88.674
1594.00,88.618
1594.50,88.675
1595.00,88.661
1595.50,88.647
1596.00,88.683
1596.50,88.641
1597.00,88.656
1597.50,88.644
1598.00,88.620
1598.50,88.649
1599.00,88.606
1599.50,88.651
1600.00,88.629
